,subject,set,day,task,trainingtype,order,Subject2,Session,Age,Sex,Handedness,Group,Block,Trial,Training,TypeLettre,typemismatch,matching,LetterStimAud,accuracy,RT
6,2,A,2,association,LowCOG,2,2.0,2.0,20.0,female,right,2.0,7.0,1.0,AV,LeftRight,match,match,L1_RU.png,0.0,0.0
7,2,A,2,association,LowCOG,2,2.0,2.0,20.0,female,right,2.0,7.0,2.0,AV,UpDown,match,match,L2_RU.png,1.0,715.0
8,2,A,2,association,LowCOG,2,2.0,2.0,20.0,female,right,2.0,7.0,3.0,AV,LeftRight,match,match,L1_LU.png,1.0,671.0
9,2,A,2,association,LowCOG,2,2.0,2.0,20.0,female,right,2.0,7.0,4.0,AV,control,match,match,L4_RU.png,1.0,783.0
10,2,A,2,association,LowCOG,2,2.0,2.0,20.0,female,right,2.0,7.0,5.0,AV,control,diffLettre,mismatch,L3_LU.png,1.0,520.0
11,2,A,2,association,LowCOG,2,2.0,2.0,20.0,female,right,2.0,7.0,6.0,AV,LeftRight,miroir,mismatch,L1_LU.png,1.0,575.0
12,2,A,2,association,LowCOG,2,2.0,2.0,20.0,female,right,2.0,7.0,7.0,AV,UpDown,match,match,L2_RD.png,1.0,552.0
13,2,A,2,association,LowCOG,2,2.0,2.0,20.0,female,right,2.0,7.0,8.0,AV,UpDown,UpDown,mismatch,L2_RD.png,1.0,527.0
14,2,A,2,association,LowCOG,2,2.0,2.0,20.0,female,right,2.0,7.0,9.0,AV,UpDown,UpDown,mismatch,L2_RU.png,1.0,689.0
15,2,A,2,association,LowCOG,2,2.0,2.0,20.0,female,right,2.0,7.0,10.0,AV,LeftRight,miroir,mismatch,L1_RU.png,1.0,667.0
16,2,A,2,association,LowCOG,2,2.0,2.0,20.0,female,right,2.0,7.0,11.0,AV,control,diffLettre,mismatch,L4_RU.png,1.0,617.0
17,2,A,2,association,LowCOG,2,2.0,2.0,20.0,female,right,2.0,7.0,12.0,AV,control,match,match,L3_LU.png,0.0,1372.0
18,2,A,2,association,LowCOG,2,2.0,2.0,20.0,female,right,2.0,8.0,1.0,AV,new,UpDown,mismatch,L3_LU.png,1.0,704.0
19,2,A,2,association,LowCOG,2,2.0,2.0,20.0,female,right,2.0,8.0,2.0,AV,UpDown,match,match,L2_RU.png,1.0,704.0
20,2,A,2,association,LowCOG,2,2.0,2.0,20.0,female,right,2.0,8.0,3.0,AV,LeftRight,match,match,L1_LU.png,1.0,740.0
21,2,A,2,association,LowCOG,2,2.0,2.0,20.0,female,right,2.0,8.0,4.0,AV,new,miroir,mismatch,L2_RD.png,1.0,423.0
22,2,A,2,association,LowCOG,2,2.0,2.0,20.0,female,right,2.0,8.0,5.0,AV,UpDown,match,match,L2_RD.png,1.0,588.0
23,2,A,2,association,LowCOG,2,2.0,2.0,20.0,female,right,2.0,8.0,6.0,AV,control,match,match,L3_LU.png,1.0,564.0
24,2,A,2,association,LowCOG,2,2.0,2.0,20.0,female,right,2.0,8.0,7.0,AV,control,match,match,L4_RU.png,1.0,707.0
25,2,A,2,association,LowCOG,2,2.0,2.0,20.0,female,right,2.0,8.0,8.0,AV,new,diffLettre,mismatch,L1_RU.png,1.0,583.0
26,2,A,2,association,LowCOG,2,2.0,2.0,20.0,female,right,2.0,8.0,9.0,AV,new,UpDown,mismatch,L4_RU.png,1.0,580.0
27,2,A,2,association,LowCOG,2,2.0,2.0,20.0,female,right,2.0,8.0,10.0,AV,LeftRight,match,match,L1_RU.png,1.0,592.0
28,2,A,2,association,LowCOG,2,2.0,2.0,20.0,female,right,2.0,8.0,11.0,AV,UpDown,diffLettre,mismatch,L1_LU.png,1.0,491.0
29,2,A,2,association,LowCOG,2,2.0,2.0,20.0,female,right,2.0,8.0,12.0,AV,new,miroir,mismatch,L2_RU.png,1.0,772.0
30,2,A,2,association,LowCOG,2,2.0,2.0,20.0,female,right,2.0,9.0,1.0,AV,new,miroir,mismatch,L3_LU.png,1.0,514.0
31,2,A,2,association,LowCOG,2,2.0,2.0,20.0,female,right,2.0,9.0,2.0,AV,new,miroir,mismatch,L4_RU.png,1.0,1030.0
32,2,A,2,association,LowCOG,2,2.0,2.0,20.0,female,right,2.0,9.0,3.0,AV,control,match,match,L3_LU.png,1.0,474.0
33,2,A,2,association,LowCOG,2,2.0,2.0,20.0,female,right,2.0,9.0,4.0,AV,control,diffLettre,mismatch,L2_RD.png,1.0,609.0
34,2,A,2,association,LowCOG,2,2.0,2.0,20.0,female,right,2.0,9.0,5.0,AV,control,diffLettre,mismatch,L2_RU.png,1.0,572.0
35,2,A,2,association,LowCOG,2,2.0,2.0,20.0,female,right,2.0,9.0,6.0,AV,new,UpDown,mismatch,L1_RU.png,1.0,519.0
36,2,A,2,association,LowCOG,2,2.0,2.0,20.0,female,right,2.0,9.0,7.0,AV,LeftRight,match,match,L1_LU.png,1.0,490.0
37,2,A,2,association,LowCOG,2,2.0,2.0,20.0,female,right,2.0,9.0,8.0,AV,UpDown,match,match,L2_RU.png,1.0,626.0
38,2,A,2,association,LowCOG,2,2.0,2.0,20.0,female,right,2.0,9.0,9.0,AV,control,match,match,L4_RU.png,1.0,607.0
39,2,A,2,association,LowCOG,2,2.0,2.0,20.0,female,right,2.0,9.0,10.0,AV,LeftRight,match,match,L1_RU.png,1.0,550.0
40,2,A,2,association,LowCOG,2,2.0,2.0,20.0,female,right,2.0,9.0,11.0,AV,new,UpDown,mismatch,L1_LU.png,1.0,516.0
41,2,A,2,association,LowCOG,2,2.0,2.0,20.0,female,right,2.0,9.0,12.0,AV,UpDown,match,match,L2_RD.png,1.0,510.0
42,2,A,2,association,LowCOG,2,2.0,2.0,20.0,female,right,2.0,10.0,1.0,AV,new,miroir,mismatch,L4_RU.png,1.0,615.0
43,2,A,2,association,LowCOG,2,2.0,2.0,20.0,female,right,2.0,10.0,2.0,AV,control,match,match,L3_LU.png,1.0,468.0
44,2,A,2,association,LowCOG,2,2.0,2.0,20.0,female,right,2.0,10.0,3.0,AV,UpDown,match,match,L2_RD.png,1.0,500.0
45,2,A,2,association,LowCOG,2,2.0,2.0,20.0,female,right,2.0,10.0,4.0,AV,new,UpDown,mismatch,L1_RU.png,1.0,83.0
46,2,A,2,association,LowCOG,2,2.0,2.0,20.0,female,right,2.0,10.0,5.0,AV,UpDown,match,match,L2_RU.png,1.0,684.0
47,2,A,2,association,LowCOG,2,2.0,2.0,20.0,female,right,2.0,10.0,6.0,AV,control,match,match,L4_RU.png,1.0,643.0
48,2,A,2,association,LowCOG,2,2.0,2.0,20.0,female,right,2.0,10.0,7.0,AV,LeftRight,diffLettre,mismatch,L1_LU.png,1.0,1730.0
49,2,A,2,association,LowCOG,2,2.0,2.0,20.0,female,right,2.0,10.0,8.0,AV,UpDown,UpDown,mismatch,L2_RU.png,1.0,995.0
50,2,A,2,association,LowCOG,2,2.0,2.0,20.0,female,right,2.0,10.0,9.0,AV,new,miroir,mismatch,L2_RD.png,1.0,809.0
51,2,A,2,association,LowCOG,2,2.0,2.0,20.0,female,right,2.0,10.0,10.0,AV,UpDown,diffLettre,mismatch,L3_LU.png,1.0,726.0
52,2,A,2,association,LowCOG,2,2.0,2.0,20.0,female,right,2.0,10.0,11.0,AV,LeftRight,match,match,L1_LU.png,1.0,513.0
53,2,A,2,association,LowCOG,2,2.0,2.0,20.0,female,right,2.0,10.0,12.0,AV,LeftRight,match,match,L1_RU.png,1.0,552.0
54,2,A,2,association,LowCOG,2,2.0,2.0,20.0,female,right,2.0,11.0,1.0,AV,UpDown,diffLettre,mismatch,L4_RU.png,1.0,563.0
55,2,A,2,association,LowCOG,2,2.0,2.0,20.0,female,right,2.0,11.0,2.0,AV,UpDown,match,match,L2_RU.png,0.0,551.0
56,2,A,2,association,LowCOG,2,2.0,2.0,20.0,female,right,2.0,11.0,3.0,AV,new,UpDown,mismatch,L3_LU.png,1.0,645.0
57,2,A,2,association,LowCOG,2,2.0,2.0,20.0,female,right,2.0,11.0,4.0,AV,LeftRight,miroir,mismatch,L1_RU.png,1.0,683.0
58,2,A,2,association,LowCOG,2,2.0,2.0,20.0,female,right,2.0,11.0,5.0,AV,control,diffLettre,mismatch,L2_RD.png,1.0,556.0
59,2,A,2,association,LowCOG,2,2.0,2.0,20.0,female,right,2.0,11.0,6.0,AV,new,UpDown,mismatch,L1_LU.png,1.0,670.0
60,2,A,2,association,LowCOG,2,2.0,2.0,20.0,female,right,2.0,11.0,7.0,AV,LeftRight,match,match,L1_LU.png,0.0,673.0
61,2,A,2,association,LowCOG,2,2.0,2.0,20.0,female,right,2.0,11.0,8.0,AV,new,miroir,mismatch,L2_RU.png,1.0,1151.0
62,2,A,2,association,LowCOG,2,2.0,2.0,20.0,female,right,2.0,11.0,9.0,AV,control,match,match,L3_LU.png,1.0,529.0
63,2,A,2,association,LowCOG,2,2.0,2.0,20.0,female,right,2.0,11.0,10.0,AV,UpDown,match,match,L2_RD.png,1.0,591.0
64,2,A,2,association,LowCOG,2,2.0,2.0,20.0,female,right,2.0,11.0,11.0,AV,control,match,match,L4_RU.png,1.0,538.0
65,2,A,2,association,LowCOG,2,2.0,2.0,20.0,female,right,2.0,11.0,12.0,AV,LeftRight,match,match,L1_RU.png,1.0,543.0
72,2,B,2,association,AV,1,2.0,2.0,20.0,female,right,2.0,7.0,1.0,AVW,LeftRight,match,match,L5_LD.png,0.0,0.0
73,2,B,2,association,AV,1,2.0,2.0,20.0,female,right,2.0,7.0,2.0,AVW,LeftRight,miroir,mismatch,L5_RD.png,1.0,2408.0
74,2,B,2,association,AV,1,2.0,2.0,20.0,female,right,2.0,7.0,3.0,AVW,LeftRight,match,match,L5_RD.png,1.0,579.0
75,2,B,2,association,AV,1,2.0,2.0,20.0,female,right,2.0,7.0,4.0,AVW,control,match,match,L8_RD.png,1.0,456.0
76,2,B,2,association,AV,1,2.0,2.0,20.0,female,right,2.0,7.0,5.0,AVW,UpDown,UpDown,mismatch,L6_LU.png,1.0,593.0
77,2,B,2,association,AV,1,2.0,2.0,20.0,female,right,2.0,7.0,6.0,AVW,UpDown,match,match,L6_LD.png,1.0,638.0
78,2,B,2,association,AV,1,2.0,2.0,20.0,female,right,2.0,7.0,7.0,AVW,UpDown,UpDown,mismatch,L6_LD.png,1.0,638.0
79,2,B,2,association,AV,1,2.0,2.0,20.0,female,right,2.0,7.0,8.0,AVW,UpDown,match,match,L6_LU.png,1.0,385.0
80,2,B,2,association,AV,1,2.0,2.0,20.0,female,right,2.0,7.0,9.0,AVW,control,diffLettre,mismatch,L8_RD.png,1.0,500.0
81,2,B,2,association,AV,1,2.0,2.0,20.0,female,right,2.0,7.0,10.0,AVW,control,match,match,L7_LD.png,0.0,530.0
82,2,B,2,association,AV,1,2.0,2.0,20.0,female,right,2.0,7.0,11.0,AVW,control,diffLettre,mismatch,L7_LD.png,1.0,651.0
83,2,B,2,association,AV,1,2.0,2.0,20.0,female,right,2.0,7.0,12.0,AVW,LeftRight,miroir,mismatch,L5_LD.png,1.0,710.0
84,2,B,2,association,AV,1,2.0,2.0,20.0,female,right,2.0,8.0,1.0,AVW,new,UpDown,mismatch,L7_LD.png,1.0,458.0
85,2,B,2,association,AV,1,2.0,2.0,20.0,female,right,2.0,8.0,2.0,AVW,UpDown,match,match,L6_LU.png,1.0,534.0
86,2,B,2,association,AV,1,2.0,2.0,20.0,female,right,2.0,8.0,3.0,AVW,new,diffLettre,mismatch,L5_LD.png,1.0,462.0
87,2,B,2,association,AV,1,2.0,2.0,20.0,female,right,2.0,8.0,4.0,AVW,LeftRight,match,match,L5_LD.png,0.0,668.0
88,2,B,2,association,AV,1,2.0,2.0,20.0,female,right,2.0,8.0,5.0,AVW,LeftRight,match,match,L5_RD.png,1.0,570.0
89,2,B,2,association,AV,1,2.0,2.0,20.0,female,right,2.0,8.0,6.0,AVW,UpDown,diffLettre,mismatch,L5_RD.png,1.0,599.0
90,2,B,2,association,AV,1,2.0,2.0,20.0,female,right,2.0,8.0,7.0,AVW,new,miroir,mismatch,L6_LU.png,1.0,463.0
91,2,B,2,association,AV,1,2.0,2.0,20.0,female,right,2.0,8.0,8.0,AVW,new,UpDown,mismatch,L8_RD.png,1.0,382.0
92,2,B,2,association,AV,1,2.0,2.0,20.0,female,right,2.0,8.0,9.0,AVW,control,match,match,L7_LD.png,1.0,550.0
93,2,B,2,association,AV,1,2.0,2.0,20.0,female,right,2.0,8.0,10.0,AVW,new,miroir,mismatch,L6_LD.png,1.0,666.0
94,2,B,2,association,AV,1,2.0,2.0,20.0,female,right,2.0,8.0,11.0,AVW,control,match,match,L8_RD.png,1.0,415.0
95,2,B,2,association,AV,1,2.0,2.0,20.0,female,right,2.0,8.0,12.0,AVW,UpDown,match,match,L6_LD.png,1.0,568.0
96,2,B,2,association,AV,1,2.0,2.0,20.0,female,right,2.0,9.0,1.0,AVW,new,miroir,mismatch,L8_RD.png,1.0,252.0
97,2,B,2,association,AV,1,2.0,2.0,20.0,female,right,2.0,9.0,2.0,AVW,LeftRight,match,match,L5_RD.png,1.0,423.0
98,2,B,2,association,AV,1,2.0,2.0,20.0,female,right,2.0,9.0,3.0,AVW,new,UpDown,mismatch,L5_RD.png,1.0,361.0
99,2,B,2,association,AV,1,2.0,2.0,20.0,female,right,2.0,9.0,4.0,AVW,new,miroir,mismatch,L7_LD.png,1.0,419.0
100,2,B,2,association,AV,1,2.0,2.0,20.0,female,right,2.0,9.0,5.0,AVW,control,match,match,L8_RD.png,1.0,346.0
101,2,B,2,association,AV,1,2.0,2.0,20.0,female,right,2.0,9.0,6.0,AVW,LeftRight,match,match,L5_LD.png,1.0,418.0
102,2,B,2,association,AV,1,2.0,2.0,20.0,female,right,2.0,9.0,7.0,AVW,UpDown,match,match,L6_LD.png,1.0,314.0
103,2,B,2,association,AV,1,2.0,2.0,20.0,female,right,2.0,9.0,8.0,AVW,new,UpDown,mismatch,L5_LD.png,1.0,398.0
104,2,B,2,association,AV,1,2.0,2.0,20.0,female,right,2.0,9.0,9.0,AVW,UpDown,match,match,L6_LU.png,1.0,668.0
105,2,B,2,association,AV,1,2.0,2.0,20.0,female,right,2.0,9.0,10.0,AVW,control,diffLettre,mismatch,L6_LD.png,1.0,347.0
106,2,B,2,association,AV,1,2.0,2.0,20.0,female,right,2.0,9.0,11.0,AVW,control,match,match,L7_LD.png,1.0,449.0
107,2,B,2,association,AV,1,2.0,2.0,20.0,female,right,2.0,9.0,12.0,AVW,new,diffLettre,mismatch,L6_LU.png,1.0,341.0
108,2,B,2,association,AV,1,2.0,2.0,20.0,female,right,2.0,10.0,1.0,AVW,new,miroir,mismatch,L6_LD.png,1.0,198.0
109,2,B,2,association,AV,1,2.0,2.0,20.0,female,right,2.0,10.0,2.0,AVW,UpDown,match,match,L6_LU.png,1.0,366.0
110,2,B,2,association,AV,1,2.0,2.0,20.0,female,right,2.0,10.0,3.0,AVW,UpDown,UpDown,mismatch,L6_LU.png,1.0,435.0
111,2,B,2,association,AV,1,2.0,2.0,20.0,female,right,2.0,10.0,4.0,AVW,LeftRight,diffLettre,mismatch,L5_LD.png,1.0,459.0
112,2,B,2,association,AV,1,2.0,2.0,20.0,female,right,2.0,10.0,5.0,AVW,new,UpDown,mismatch,L5_RD.png,1.0,366.0
113,2,B,2,association,AV,1,2.0,2.0,20.0,female,right,2.0,10.0,6.0,AVW,new,diffLettre,mismatch,L7_LD.png,1.0,395.0
114,2,B,2,association,AV,1,2.0,2.0,20.0,female,right,2.0,10.0,7.0,AVW,new,miroir,mismatch,L8_RD.png,1.0,218.0
115,2,B,2,association,AV,1,2.0,2.0,20.0,female,right,2.0,10.0,8.0,AVW,control,match,match,L8_RD.png,1.0,314.0
116,2,B,2,association,AV,1,2.0,2.0,20.0,female,right,2.0,10.0,9.0,AVW,LeftRight,match,match,L5_RD.png,1.0,416.0
117,2,B,2,association,AV,1,2.0,2.0,20.0,female,right,2.0,10.0,10.0,AVW,UpDown,match,match,L6_LD.png,1.0,344.0
118,2,B,2,association,AV,1,2.0,2.0,20.0,female,right,2.0,10.0,11.0,AVW,control,match,match,L7_LD.png,1.0,400.0
119,2,B,2,association,AV,1,2.0,2.0,20.0,female,right,2.0,10.0,12.0,AVW,LeftRight,match,match,L5_LD.png,1.0,449.0
120,2,B,2,association,AV,1,2.0,2.0,20.0,female,right,2.0,11.0,1.0,AVW,LeftRight,miroir,mismatch,L5_RD.png,1.0,366.0
121,2,B,2,association,AV,1,2.0,2.0,20.0,female,right,2.0,11.0,2.0,AVW,new,miroir,mismatch,L6_LU.png,1.0,428.0
122,2,B,2,association,AV,1,2.0,2.0,20.0,female,right,2.0,11.0,3.0,AVW,control,match,match,L7_LD.png,1.0,416.0
123,2,B,2,association,AV,1,2.0,2.0,20.0,female,right,2.0,11.0,4.0,AVW,UpDown,match,match,L6_LU.png,0.0,359.0
124,2,B,2,association,AV,1,2.0,2.0,20.0,female,right,2.0,11.0,5.0,AVW,control,UpDown,mismatch,L5_LD.png,1.0,342.0
125,2,B,2,association,AV,1,2.0,2.0,20.0,female,right,2.0,11.0,6.0,AVW,LeftRight,match,match,L5_LD.png,1.0,272.0
126,2,B,2,association,AV,1,2.0,2.0,20.0,female,right,2.0,11.0,7.0,AVW,UpDown,diffLettre,mismatch,L8_RD.png,1.0,445.0
127,2,B,2,association,AV,1,2.0,2.0,20.0,female,right,2.0,11.0,8.0,AVW,control,match,match,L8_RD.png,1.0,547.0
128,2,B,2,association,AV,1,2.0,2.0,20.0,female,right,2.0,11.0,9.0,AVW,new,UpDown,mismatch,L7_LD.png,1.0,471.0
129,2,B,2,association,AV,1,2.0,2.0,20.0,female,right,2.0,11.0,10.0,AVW,UpDown,match,match,L6_LD.png,1.0,471.0
130,2,B,2,association,AV,1,2.0,2.0,20.0,female,right,2.0,11.0,11.0,AVW,LeftRight,match,match,L5_RD.png,1.0,384.0
131,2,B,2,association,AV,1,2.0,2.0,20.0,female,right,2.0,11.0,12.0,AVW,new,diffLettre,mismatch,L6_LD.png,1.0,442.0
138,2,C,2,association,BuildUP,3,2.0,2.0,20.0,female,right,2.0,7.0,1.0,AVWS,UpDown,UpDown,mismatch,L10_RD.png,1.0,1506.0
139,2,C,2,association,BuildUP,3,2.0,2.0,20.0,female,right,2.0,7.0,2.0,AVWS,control,match,match,L11_RD.png,1.0,601.0
140,2,C,2,association,BuildUP,3,2.0,2.0,20.0,female,right,2.0,7.0,3.0,AVWS,LeftRight,miroir,mismatch,L9_LD.png,1.0,1130.0
141,2,C,2,association,BuildUP,3,2.0,2.0,20.0,female,right,2.0,7.0,4.0,AVWS,LeftRight,match,match,L9_LD.png,1.0,464.0
142,2,C,2,association,BuildUP,3,2.0,2.0,20.0,female,right,2.0,7.0,5.0,AVWS,LeftRight,miroir,mismatch,L9_RD.png,1.0,670.0
143,2,C,2,association,BuildUP,3,2.0,2.0,20.0,female,right,2.0,7.0,6.0,AVWS,control,diffLettre,mismatch,L12_LD.png,1.0,544.0
144,2,C,2,association,BuildUP,3,2.0,2.0,20.0,female,right,2.0,7.0,7.0,AVWS,UpDown,match,match,L10_RU.png,1.0,525.0
145,2,C,2,association,BuildUP,3,2.0,2.0,20.0,female,right,2.0,7.0,8.0,AVWS,LeftRight,match,match,L9_RD.png,1.0,987.0
146,2,C,2,association,BuildUP,3,2.0,2.0,20.0,female,right,2.0,7.0,9.0,AVWS,UpDown,UpDown,mismatch,L10_RU.png,1.0,778.0
147,2,C,2,association,BuildUP,3,2.0,2.0,20.0,female,right,2.0,7.0,10.0,AVWS,control,match,match,L12_LD.png,1.0,850.0
148,2,C,2,association,BuildUP,3,2.0,2.0,20.0,female,right,2.0,7.0,11.0,AVWS,control,diffLettre,mismatch,L11_RD.png,1.0,585.0
149,2,C,2,association,BuildUP,3,2.0,2.0,20.0,female,right,2.0,7.0,12.0,AVWS,UpDown,match,match,L10_RD.png,1.0,484.0
150,2,C,2,association,BuildUP,3,2.0,2.0,20.0,female,right,2.0,8.0,1.0,AVWS,new,UpDown,mismatch,L11_RD.png,0.0,537.0
151,2,C,2,association,BuildUP,3,2.0,2.0,20.0,female,right,2.0,8.0,2.0,AVWS,LeftRight,match,match,L9_RD.png,1.0,822.0
152,2,C,2,association,BuildUP,3,2.0,2.0,20.0,female,right,2.0,8.0,3.0,AVWS,new,diffLettre,mismatch,L9_LD.png,1.0,509.0
153,2,C,2,association,BuildUP,3,2.0,2.0,20.0,female,right,2.0,8.0,4.0,AVWS,UpDown,match,match,L10_RU.png,1.0,576.0
154,2,C,2,association,BuildUP,3,2.0,2.0,20.0,female,right,2.0,8.0,5.0,AVWS,new,UpDown,mismatch,L12_LD.png,1.0,889.0
155,2,C,2,association,BuildUP,3,2.0,2.0,20.0,female,right,2.0,8.0,6.0,AVWS,LeftRight,match,match,L9_LD.png,1.0,506.0
156,2,C,2,association,BuildUP,3,2.0,2.0,20.0,female,right,2.0,8.0,7.0,AVWS,new,diffLettre,mismatch,L9_RD.png,1.0,910.0
157,2,C,2,association,BuildUP,3,2.0,2.0,20.0,female,right,2.0,8.0,8.0,AVWS,UpDown,match,match,L10_RD.png,1.0,823.0
158,2,C,2,association,BuildUP,3,2.0,2.0,20.0,female,right,2.0,8.0,9.0,AVWS,new,miroir,mismatch,L10_RD.png,1.0,447.0
159,2,C,2,association,BuildUP,3,2.0,2.0,20.0,female,right,2.0,8.0,10.0,AVWS,control,match,match,L11_RD.png,1.0,559.0
160,2,C,2,association,BuildUP,3,2.0,2.0,20.0,female,right,2.0,8.0,11.0,AVWS,new,miroir,mismatch,L10_RU.png,1.0,508.0
161,2,C,2,association,BuildUP,3,2.0,2.0,20.0,female,right,2.0,8.0,12.0,AVWS,control,match,match,L12_LD.png,1.0,459.0
162,2,C,2,association,BuildUP,3,2.0,2.0,20.0,female,right,2.0,9.0,1.0,AVWS,control,match,match,L11_RD.png,1.0,634.0
163,2,C,2,association,BuildUP,3,2.0,2.0,20.0,female,right,2.0,9.0,2.0,AVWS,control,match,match,L12_LD.png,1.0,692.0
164,2,C,2,association,BuildUP,3,2.0,2.0,20.0,female,right,2.0,9.0,3.0,AVWS,new,UpDown,mismatch,L9_RD.png,1.0,638.0
165,2,C,2,association,BuildUP,3,2.0,2.0,20.0,female,right,2.0,9.0,4.0,AVWS,LeftRight,diffLettre,mismatch,L10_RD.png,0.0,639.0
166,2,C,2,association,BuildUP,3,2.0,2.0,20.0,female,right,2.0,9.0,5.0,AVWS,LeftRight,match,match,L9_RD.png,1.0,674.0
167,2,C,2,association,BuildUP,3,2.0,2.0,20.0,female,right,2.0,9.0,6.0,AVWS,LeftRight,match,match,L9_LD.png,1.0,653.0
168,2,C,2,association,BuildUP,3,2.0,2.0,20.0,female,right,2.0,9.0,7.0,AVWS,new,miroir,mismatch,L12_LD.png,1.0,854.0
169,2,C,2,association,BuildUP,3,2.0,2.0,20.0,female,right,2.0,9.0,8.0,AVWS,new,UpDown,mismatch,L9_LD.png,1.0,856.0
170,2,C,2,association,BuildUP,3,2.0,2.0,20.0,female,right,2.0,9.0,9.0,AVWS,UpDown,match,match,L10_RD.png,1.0,495.0
171,2,C,2,association,BuildUP,3,2.0,2.0,20.0,female,right,2.0,9.0,10.0,AVWS,UpDown,match,match,L10_RU.png,1.0,488.0
172,2,C,2,association,BuildUP,3,2.0,2.0,20.0,female,right,2.0,9.0,11.0,AVWS,control,diffLettre,mismatch,L10_RU.png,1.0,545.0
173,2,C,2,association,BuildUP,3,2.0,2.0,20.0,female,right,2.0,9.0,12.0,AVWS,new,miroir,mismatch,L11_RD.png,1.0,471.0
174,2,C,2,association,BuildUP,3,2.0,2.0,20.0,female,right,2.0,10.0,1.0,AVWS,UpDown,diffLettre,mismatch,L11_RD.png,1.0,597.0
175,2,C,2,association,BuildUP,3,2.0,2.0,20.0,female,right,2.0,10.0,2.0,AVWS,UpDown,UpDown,mismatch,L10_RD.png,1.0,567.0
176,2,C,2,association,BuildUP,3,2.0,2.0,20.0,female,right,2.0,10.0,3.0,AVWS,new,diffLettre,mismatch,L9_LD.png,1.0,495.0
177,2,C,2,association,BuildUP,3,2.0,2.0,20.0,female,right,2.0,10.0,4.0,AVWS,UpDown,match,match,L10_RD.png,1.0,573.0
178,2,C,2,association,BuildUP,3,2.0,2.0,20.0,female,right,2.0,10.0,5.0,AVWS,LeftRight,match,match,L9_RD.png,1.0,727.0
179,2,C,2,association,BuildUP,3,2.0,2.0,20.0,female,right,2.0,10.0,6.0,AVWS,new,UpDown,mismatch,L9_RD.png,1.0,755.0
180,2,C,2,association,BuildUP,3,2.0,2.0,20.0,female,right,2.0,10.0,7.0,AVWS,control,match,match,L11_RD.png,1.0,716.0
181,2,C,2,association,BuildUP,3,2.0,2.0,20.0,female,right,2.0,10.0,8.0,AVWS,LeftRight,match,match,L9_LD.png,1.0,459.0
182,2,C,2,association,BuildUP,3,2.0,2.0,20.0,female,right,2.0,10.0,9.0,AVWS,UpDown,match,match,L10_RU.png,1.0,547.0
183,2,C,2,association,BuildUP,3,2.0,2.0,20.0,female,right,2.0,10.0,10.0,AVWS,new,miroir,mismatch,L10_RU.png,1.0,397.0
184,2,C,2,association,BuildUP,3,2.0,2.0,20.0,female,right,2.0,10.0,11.0,AVWS,new,miroir,mismatch,L12_LD.png,1.0,490.0
185,2,C,2,association,BuildUP,3,2.0,2.0,20.0,female,right,2.0,10.0,12.0,AVWS,control,match,match,L12_LD.png,1.0,546.0
186,2,C,2,association,BuildUP,3,2.0,2.0,20.0,female,right,2.0,11.0,1.0,AVWS,LeftRight,match,match,L9_RD.png,1.0,721.0
187,2,C,2,association,BuildUP,3,2.0,2.0,20.0,female,right,2.0,11.0,2.0,AVWS,LeftRight,match,match,L9_LD.png,1.0,437.0
188,2,C,2,association,BuildUP,3,2.0,2.0,20.0,female,right,2.0,11.0,3.0,AVWS,new,miroir,mismatch,L10_RD.png,1.0,1362.0
189,2,C,2,association,BuildUP,3,2.0,2.0,20.0,female,right,2.0,11.0,4.0,AVWS,UpDown,diffLettre,mismatch,L12_LD.png,1.0,676.0
190,2,C,2,association,BuildUP,3,2.0,2.0,20.0,female,right,2.0,11.0,5.0,AVWS,UpDown,match,match,L10_RD.png,1.0,505.0
191,2,C,2,association,BuildUP,3,2.0,2.0,20.0,female,right,2.0,11.0,6.0,AVWS,LeftRight,miroir,mismatch,L9_RD.png,1.0,819.0
192,2,C,2,association,BuildUP,3,2.0,2.0,20.0,female,right,2.0,11.0,7.0,AVWS,new,UpDown,mismatch,L9_LD.png,1.0,498.0
193,2,C,2,association,BuildUP,3,2.0,2.0,20.0,female,right,2.0,11.0,8.0,AVWS,new,UpDown,mismatch,L11_RD.png,1.0,456.0
194,2,C,2,association,BuildUP,3,2.0,2.0,20.0,female,right,2.0,11.0,9.0,AVWS,new,diffLettre,mismatch,L10_RU.png,1.0,621.0
195,2,C,2,association,BuildUP,3,2.0,2.0,20.0,female,right,2.0,11.0,10.0,AVWS,UpDown,match,match,L10_RU.png,1.0,554.0
196,2,C,2,association,BuildUP,3,2.0,2.0,20.0,female,right,2.0,11.0,11.0,AVWS,control,match,match,L12_LD.png,1.0,586.0
197,2,C,2,association,BuildUP,3,2.0,2.0,20.0,female,right,2.0,11.0,12.0,AVWS,control,match,match,L11_RD.png,1.0,572.0
204,2,A,1,association,LowCOG,2,2.0,1.0,20.0,female,right,2.0,7.0,1.0,AV,control,match,match,L3_LU.png,1.0,2426.0
205,2,A,1,association,LowCOG,2,2.0,1.0,20.0,female,right,2.0,7.0,2.0,AV,control,match,match,L4_RU.png,1.0,1862.0
206,2,A,1,association,LowCOG,2,2.0,1.0,20.0,female,right,2.0,7.0,3.0,AV,control,diffLettre,mismatch,L3_LU.png,1.0,1230.0
207,2,A,1,association,LowCOG,2,2.0,1.0,20.0,female,right,2.0,7.0,4.0,AV,UpDown,match,match,L2_RU.png,1.0,707.0
208,2,A,1,association,LowCOG,2,2.0,1.0,20.0,female,right,2.0,7.0,5.0,AV,UpDown,UpDown,mismatch,L2_RD.png,1.0,605.0
209,2,A,1,association,LowCOG,2,2.0,1.0,20.0,female,right,2.0,7.0,6.0,AV,LeftRight,match,match,L1_RU.png,1.0,810.0
210,2,A,1,association,LowCOG,2,2.0,1.0,20.0,female,right,2.0,7.0,7.0,AV,LeftRight,miroir,mismatch,L1_RU.png,1.0,619.0
211,2,A,1,association,LowCOG,2,2.0,1.0,20.0,female,right,2.0,7.0,8.0,AV,LeftRight,match,match,L1_LU.png,1.0,521.0
212,2,A,1,association,LowCOG,2,2.0,1.0,20.0,female,right,2.0,7.0,9.0,AV,UpDown,match,match,L2_RD.png,1.0,501.0
213,2,A,1,association,LowCOG,2,2.0,1.0,20.0,female,right,2.0,7.0,10.0,AV,UpDown,UpDown,mismatch,L2_RU.png,1.0,506.0
214,2,A,1,association,LowCOG,2,2.0,1.0,20.0,female,right,2.0,7.0,11.0,AV,control,diffLettre,mismatch,L4_RU.png,1.0,810.0
215,2,A,1,association,LowCOG,2,2.0,1.0,20.0,female,right,2.0,7.0,12.0,AV,LeftRight,miroir,mismatch,L1_LU.png,1.0,970.0
216,2,A,1,association,LowCOG,2,2.0,1.0,20.0,female,right,2.0,8.0,1.0,AV,LeftRight,match,match,L1_LU.png,1.0,593.0
217,2,A,1,association,LowCOG,2,2.0,1.0,20.0,female,right,2.0,8.0,2.0,AV,UpDown,match,match,L2_RU.png,1.0,591.0
218,2,A,1,association,LowCOG,2,2.0,1.0,20.0,female,right,2.0,8.0,3.0,AV,new,diffLettre,mismatch,L1_RU.png,1.0,556.0
219,2,A,1,association,LowCOG,2,2.0,1.0,20.0,female,right,2.0,8.0,4.0,AV,new,miroir,mismatch,L2_RD.png,1.0,1312.0
220,2,A,1,association,LowCOG,2,2.0,1.0,20.0,female,right,2.0,8.0,5.0,AV,UpDown,match,match,L2_RD.png,1.0,566.0
221,2,A,1,association,LowCOG,2,2.0,1.0,20.0,female,right,2.0,8.0,6.0,AV,control,match,match,L4_RU.png,1.0,618.0
222,2,A,1,association,LowCOG,2,2.0,1.0,20.0,female,right,2.0,8.0,7.0,AV,control,match,match,L3_LU.png,1.0,554.0
223,2,A,1,association,LowCOG,2,2.0,1.0,20.0,female,right,2.0,8.0,8.0,AV,new,UpDown,mismatch,L3_LU.png,1.0,515.0
224,2,A,1,association,LowCOG,2,2.0,1.0,20.0,female,right,2.0,8.0,9.0,AV,new,miroir,mismatch,L2_RU.png,1.0,771.0
225,2,A,1,association,LowCOG,2,2.0,1.0,20.0,female,right,2.0,8.0,10.0,AV,LeftRight,match,match,L1_RU.png,1.0,550.0
226,2,A,1,association,LowCOG,2,2.0,1.0,20.0,female,right,2.0,8.0,11.0,AV,UpDown,diffLettre,mismatch,L1_LU.png,1.0,622.0
227,2,A,1,association,LowCOG,2,2.0,1.0,20.0,female,right,2.0,8.0,12.0,AV,new,UpDown,mismatch,L4_RU.png,0.0,788.0
228,2,A,1,association,LowCOG,2,2.0,1.0,20.0,female,right,2.0,9.0,1.0,AV,new,UpDown,mismatch,L1_RU.png,1.0,571.0
229,2,A,1,association,LowCOG,2,2.0,1.0,20.0,female,right,2.0,9.0,2.0,AV,new,miroir,mismatch,L4_RU.png,1.0,471.0
230,2,A,1,association,LowCOG,2,2.0,1.0,20.0,female,right,2.0,9.0,3.0,AV,new,UpDown,mismatch,L1_LU.png,1.0,206.0
231,2,A,1,association,LowCOG,2,2.0,1.0,20.0,female,right,2.0,9.0,4.0,AV,control,diffLettre,mismatch,L2_RU.png,1.0,1053.0
232,2,A,1,association,LowCOG,2,2.0,1.0,20.0,female,right,2.0,9.0,5.0,AV,new,miroir,mismatch,L3_LU.png,1.0,1197.0
233,2,A,1,association,LowCOG,2,2.0,1.0,20.0,female,right,2.0,9.0,6.0,AV,control,match,match,L3_LU.png,1.0,577.0
234,2,A,1,association,LowCOG,2,2.0,1.0,20.0,female,right,2.0,9.0,7.0,AV,LeftRight,match,match,L1_LU.png,1.0,2045.0
235,2,A,1,association,LowCOG,2,2.0,1.0,20.0,female,right,2.0,9.0,8.0,AV,UpDown,match,match,L2_RD.png,1.0,825.0
236,2,A,1,association,LowCOG,2,2.0,1.0,20.0,female,right,2.0,9.0,9.0,AV,control,match,match,L4_RU.png,1.0,604.0
237,2,A,1,association,LowCOG,2,2.0,1.0,20.0,female,right,2.0,9.0,10.0,AV,LeftRight,match,match,L1_RU.png,1.0,647.0
238,2,A,1,association,LowCOG,2,2.0,1.0,20.0,female,right,2.0,9.0,11.0,AV,UpDown,match,match,L2_RU.png,1.0,599.0
239,2,A,1,association,LowCOG,2,2.0,1.0,20.0,female,right,2.0,9.0,12.0,AV,control,diffLettre,mismatch,L2_RD.png,1.0,1195.0
240,2,A,1,association,LowCOG,2,2.0,1.0,20.0,female,right,2.0,10.0,1.0,AV,new,miroir,mismatch,L4_RU.png,1.0,562.0
241,2,A,1,association,LowCOG,2,2.0,1.0,20.0,female,right,2.0,10.0,2.0,AV,UpDown,match,match,L2_RU.png,1.0,2176.0
242,2,A,1,association,LowCOG,2,2.0,1.0,20.0,female,right,2.0,10.0,3.0,AV,control,match,match,L4_RU.png,1.0,774.0
243,2,A,1,association,LowCOG,2,2.0,1.0,20.0,female,right,2.0,10.0,4.0,AV,new,miroir,mismatch,L2_RD.png,1.0,1224.0
244,2,A,1,association,LowCOG,2,2.0,1.0,20.0,female,right,2.0,10.0,5.0,AV,control,match,match,L3_LU.png,1.0,539.0
245,2,A,1,association,LowCOG,2,2.0,1.0,20.0,female,right,2.0,10.0,6.0,AV,new,UpDown,mismatch,L1_RU.png,1.0,534.0
246,2,A,1,association,LowCOG,2,2.0,1.0,20.0,female,right,2.0,10.0,7.0,AV,UpDown,match,match,L2_RD.png,1.0,1029.0
247,2,A,1,association,LowCOG,2,2.0,1.0,20.0,female,right,2.0,10.0,8.0,AV,UpDown,diffLettre,mismatch,L3_LU.png,1.0,748.0
248,2,A,1,association,LowCOG,2,2.0,1.0,20.0,female,right,2.0,10.0,9.0,AV,UpDown,UpDown,mismatch,L2_RU.png,1.0,874.0
249,2,A,1,association,LowCOG,2,2.0,1.0,20.0,female,right,2.0,10.0,10.0,AV,LeftRight,match,match,L1_LU.png,1.0,524.0
250,2,A,1,association,LowCOG,2,2.0,1.0,20.0,female,right,2.0,10.0,11.0,AV,LeftRight,diffLettre,mismatch,L1_LU.png,1.0,644.0
251,2,A,1,association,LowCOG,2,2.0,1.0,20.0,female,right,2.0,10.0,12.0,AV,LeftRight,match,match,L1_RU.png,1.0,702.0
252,2,A,1,association,LowCOG,2,2.0,1.0,20.0,female,right,2.0,11.0,1.0,AV,UpDown,diffLettre,mismatch,L4_RU.png,1.0,658.0
253,2,A,1,association,LowCOG,2,2.0,1.0,20.0,female,right,2.0,11.0,2.0,AV,new,miroir,mismatch,L2_RU.png,1.0,607.0
254,2,A,1,association,LowCOG,2,2.0,1.0,20.0,female,right,2.0,11.0,3.0,AV,new,UpDown,mismatch,L1_LU.png,1.0,476.0
255,2,A,1,association,LowCOG,2,2.0,1.0,20.0,female,right,2.0,11.0,4.0,AV,control,match,match,L4_RU.png,1.0,563.0
256,2,A,1,association,LowCOG,2,2.0,1.0,20.0,female,right,2.0,11.0,5.0,AV,UpDown,match,match,L2_RU.png,1.0,778.0
257,2,A,1,association,LowCOG,2,2.0,1.0,20.0,female,right,2.0,11.0,6.0,AV,LeftRight,miroir,mismatch,L1_RU.png,1.0,696.0
258,2,A,1,association,LowCOG,2,2.0,1.0,20.0,female,right,2.0,11.0,7.0,AV,new,UpDown,mismatch,L3_LU.png,1.0,513.0
259,2,A,1,association,LowCOG,2,2.0,1.0,20.0,female,right,2.0,11.0,8.0,AV,UpDown,match,match,L2_RD.png,1.0,802.0
260,2,A,1,association,LowCOG,2,2.0,1.0,20.0,female,right,2.0,11.0,9.0,AV,LeftRight,match,match,L1_RU.png,1.0,745.0
261,2,A,1,association,LowCOG,2,2.0,1.0,20.0,female,right,2.0,11.0,10.0,AV,LeftRight,match,match,L1_LU.png,0.0,468.0
262,2,A,1,association,LowCOG,2,2.0,1.0,20.0,female,right,2.0,11.0,11.0,AV,control,diffLettre,mismatch,L2_RD.png,1.0,619.0
263,2,A,1,association,LowCOG,2,2.0,1.0,20.0,female,right,2.0,11.0,12.0,AV,control,match,match,L3_LU.png,1.0,533.0
270,2,B,1,association,AV,1,2.0,1.0,20.0,female,right,2.0,7.0,1.0,AVW,LeftRight,match,match,L5_RD.png,1.0,2351.0
271,2,B,1,association,AV,1,2.0,1.0,20.0,female,right,2.0,7.0,2.0,AVW,LeftRight,miroir,mismatch,L5_RD.png,1.0,853.0
272,2,B,1,association,AV,1,2.0,1.0,20.0,female,right,2.0,7.0,3.0,AVW,control,match,match,L8_RD.png,1.0,619.0
273,2,B,1,association,AV,1,2.0,1.0,20.0,female,right,2.0,7.0,4.0,AVW,LeftRight,match,match,L5_LD.png,1.0,864.0
274,2,B,1,association,AV,1,2.0,1.0,20.0,female,right,2.0,7.0,5.0,AVW,control,match,match,L7_LD.png,1.0,807.0
275,2,B,1,association,AV,1,2.0,1.0,20.0,female,right,2.0,7.0,6.0,AVW,UpDown,UpDown,mismatch,L6_LD.png,1.0,765.0
276,2,B,1,association,AV,1,2.0,1.0,20.0,female,right,2.0,7.0,7.0,AVW,control,diffLettre,mismatch,L8_RD.png,1.0,710.0
277,2,B,1,association,AV,1,2.0,1.0,20.0,female,right,2.0,7.0,8.0,AVW,UpDown,match,match,L6_LD.png,1.0,966.0
278,2,B,1,association,AV,1,2.0,1.0,20.0,female,right,2.0,7.0,9.0,AVW,LeftRight,miroir,mismatch,L5_LD.png,1.0,841.0
279,2,B,1,association,AV,1,2.0,1.0,20.0,female,right,2.0,7.0,10.0,AVW,UpDown,match,match,L6_LU.png,1.0,537.0
280,2,B,1,association,AV,1,2.0,1.0,20.0,female,right,2.0,7.0,11.0,AVW,control,diffLettre,mismatch,L7_LD.png,1.0,547.0
281,2,B,1,association,AV,1,2.0,1.0,20.0,female,right,2.0,7.0,12.0,AVW,UpDown,UpDown,mismatch,L6_LU.png,1.0,2150.0
282,2,B,1,association,AV,1,2.0,1.0,20.0,female,right,2.0,8.0,1.0,AVW,new,UpDown,mismatch,L7_LD.png,0.0,993.0
283,2,B,1,association,AV,1,2.0,1.0,20.0,female,right,2.0,8.0,2.0,AVW,control,match,match,L7_LD.png,1.0,849.0
284,2,B,1,association,AV,1,2.0,1.0,20.0,female,right,2.0,8.0,3.0,AVW,LeftRight,match,match,L5_LD.png,0.0,0.0
285,2,B,1,association,AV,1,2.0,1.0,20.0,female,right,2.0,8.0,4.0,AVW,UpDown,diffLettre,mismatch,L5_RD.png,1.0,920.0
286,2,B,1,association,AV,1,2.0,1.0,20.0,female,right,2.0,8.0,5.0,AVW,new,miroir,mismatch,L6_LU.png,0.0,1846.0
287,2,B,1,association,AV,1,2.0,1.0,20.0,female,right,2.0,8.0,6.0,AVW,new,diffLettre,mismatch,L5_LD.png,1.0,1084.0
288,2,B,1,association,AV,1,2.0,1.0,20.0,female,right,2.0,8.0,7.0,AVW,UpDown,match,match,L6_LU.png,1.0,485.0
289,2,B,1,association,AV,1,2.0,1.0,20.0,female,right,2.0,8.0,8.0,AVW,control,match,match,L8_RD.png,1.0,701.0
290,2,B,1,association,AV,1,2.0,1.0,20.0,female,right,2.0,8.0,9.0,AVW,new,miroir,mismatch,L6_LD.png,1.0,1056.0
291,2,B,1,association,AV,1,2.0,1.0,20.0,female,right,2.0,8.0,10.0,AVW,UpDown,match,match,L6_LD.png,1.0,796.0
292,2,B,1,association,AV,1,2.0,1.0,20.0,female,right,2.0,8.0,11.0,AVW,LeftRight,match,match,L5_RD.png,1.0,666.0
293,2,B,1,association,AV,1,2.0,1.0,20.0,female,right,2.0,8.0,12.0,AVW,new,UpDown,mismatch,L8_RD.png,1.0,570.0
294,2,B,1,association,AV,1,2.0,1.0,20.0,female,right,2.0,9.0,1.0,AVW,control,match,match,L8_RD.png,1.0,628.0
295,2,B,1,association,AV,1,2.0,1.0,20.0,female,right,2.0,9.0,2.0,AVW,control,match,match,L7_LD.png,1.0,579.0
296,2,B,1,association,AV,1,2.0,1.0,20.0,female,right,2.0,9.0,3.0,AVW,new,diffLettre,mismatch,L6_LU.png,1.0,511.0
297,2,B,1,association,AV,1,2.0,1.0,20.0,female,right,2.0,9.0,4.0,AVW,LeftRight,match,match,L5_RD.png,1.0,755.0
298,2,B,1,association,AV,1,2.0,1.0,20.0,female,right,2.0,9.0,5.0,AVW,new,UpDown,mismatch,L5_LD.png,1.0,684.0
299,2,B,1,association,AV,1,2.0,1.0,20.0,female,right,2.0,9.0,6.0,AVW,UpDown,match,match,L6_LU.png,1.0,535.0
300,2,B,1,association,AV,1,2.0,1.0,20.0,female,right,2.0,9.0,7.0,AVW,new,UpDown,mismatch,L5_RD.png,1.0,745.0
301,2,B,1,association,AV,1,2.0,1.0,20.0,female,right,2.0,9.0,8.0,AVW,new,miroir,mismatch,L8_RD.png,1.0,987.0
302,2,B,1,association,AV,1,2.0,1.0,20.0,female,right,2.0,9.0,9.0,AVW,UpDown,match,match,L6_LD.png,1.0,934.0
303,2,B,1,association,AV,1,2.0,1.0,20.0,female,right,2.0,9.0,10.0,AVW,new,miroir,mismatch,L7_LD.png,1.0,685.0
304,2,B,1,association,AV,1,2.0,1.0,20.0,female,right,2.0,9.0,11.0,AVW,LeftRight,match,match,L5_LD.png,1.0,731.0
305,2,B,1,association,AV,1,2.0,1.0,20.0,female,right,2.0,9.0,12.0,AVW,control,diffLettre,mismatch,L6_LD.png,1.0,691.0
306,2,B,1,association,AV,1,2.0,1.0,20.0,female,right,2.0,10.0,1.0,AVW,UpDown,match,match,L6_LD.png,1.0,688.0
307,2,B,1,association,AV,1,2.0,1.0,20.0,female,right,2.0,10.0,2.0,AVW,new,miroir,mismatch,L6_LD.png,1.0,740.0
308,2,B,1,association,AV,1,2.0,1.0,20.0,female,right,2.0,10.0,3.0,AVW,new,UpDown,mismatch,L5_RD.png,1.0,859.0
309,2,B,1,association,AV,1,2.0,1.0,20.0,female,right,2.0,10.0,4.0,AVW,UpDown,UpDown,mismatch,L6_LU.png,0.0,526.0
310,2,B,1,association,AV,1,2.0,1.0,20.0,female,right,2.0,10.0,5.0,AVW,LeftRight,match,match,L5_LD.png,1.0,655.0
311,2,B,1,association,AV,1,2.0,1.0,20.0,female,right,2.0,10.0,6.0,AVW,UpDown,match,match,L6_LU.png,0.0,723.0
312,2,B,1,association,AV,1,2.0,1.0,20.0,female,right,2.0,10.0,7.0,AVW,control,match,match,L7_LD.png,1.0,693.0
313,2,B,1,association,AV,1,2.0,1.0,20.0,female,right,2.0,10.0,8.0,AVW,LeftRight,diffLettre,mismatch,L5_LD.png,1.0,843.0
314,2,B,1,association,AV,1,2.0,1.0,20.0,female,right,2.0,10.0,9.0,AVW,new,miroir,mismatch,L8_RD.png,1.0,549.0
315,2,B,1,association,AV,1,2.0,1.0,20.0,female,right,2.0,10.0,10.0,AVW,new,diffLettre,mismatch,L7_LD.png,1.0,701.0
316,2,B,1,association,AV,1,2.0,1.0,20.0,female,right,2.0,10.0,11.0,AVW,LeftRight,match,match,L5_RD.png,1.0,749.0
317,2,B,1,association,AV,1,2.0,1.0,20.0,female,right,2.0,10.0,12.0,AVW,control,match,match,L8_RD.png,1.0,748.0
318,2,B,1,association,AV,1,2.0,1.0,20.0,female,right,2.0,11.0,1.0,AVW,LeftRight,match,match,L5_RD.png,1.0,953.0
319,2,B,1,association,AV,1,2.0,1.0,20.0,female,right,2.0,11.0,2.0,AVW,control,match,match,L8_RD.png,1.0,541.0
320,2,B,1,association,AV,1,2.0,1.0,20.0,female,right,2.0,11.0,3.0,AVW,control,UpDown,mismatch,L5_LD.png,1.0,640.0
321,2,B,1,association,AV,1,2.0,1.0,20.0,female,right,2.0,11.0,4.0,AVW,UpDown,match,match,L6_LD.png,1.0,840.0
322,2,B,1,association,AV,1,2.0,1.0,20.0,female,right,2.0,11.0,5.0,AVW,new,diffLettre,mismatch,L6_LD.png,1.0,916.0
323,2,B,1,association,AV,1,2.0,1.0,20.0,female,right,2.0,11.0,6.0,AVW,LeftRight,miroir,mismatch,L5_RD.png,0.0,614.0
324,2,B,1,association,AV,1,2.0,1.0,20.0,female,right,2.0,11.0,7.0,AVW,UpDown,match,match,L6_LU.png,1.0,526.0
325,2,B,1,association,AV,1,2.0,1.0,20.0,female,right,2.0,11.0,8.0,AVW,new,UpDown,mismatch,L7_LD.png,1.0,643.0
326,2,B,1,association,AV,1,2.0,1.0,20.0,female,right,2.0,11.0,9.0,AVW,UpDown,diffLettre,mismatch,L8_RD.png,1.0,645.0
327,2,B,1,association,AV,1,2.0,1.0,20.0,female,right,2.0,11.0,10.0,AVW,control,match,match,L7_LD.png,1.0,639.0
328,2,B,1,association,AV,1,2.0,1.0,20.0,female,right,2.0,11.0,11.0,AVW,LeftRight,match,match,L5_LD.png,1.0,645.0
329,2,B,1,association,AV,1,2.0,1.0,20.0,female,right,2.0,11.0,12.0,AVW,new,miroir,mismatch,L6_LU.png,1.0,1111.0
336,2,C,1,association,BuildUP,3,2.0,1.0,20.0,female,right,2.0,7.0,1.0,AVWS,control,diffLettre,mismatch,L12_LD.png,1.0,1028.0
337,2,C,1,association,BuildUP,3,2.0,1.0,20.0,female,right,2.0,7.0,2.0,AVWS,LeftRight,match,match,L9_RD.png,1.0,690.0
338,2,C,1,association,BuildUP,3,2.0,1.0,20.0,female,right,2.0,7.0,3.0,AVWS,control,match,match,L12_LD.png,1.0,585.0
339,2,C,1,association,BuildUP,3,2.0,1.0,20.0,female,right,2.0,7.0,4.0,AVWS,control,match,match,L11_RD.png,0.0,573.0
340,2,C,1,association,BuildUP,3,2.0,1.0,20.0,female,right,2.0,7.0,5.0,AVWS,UpDown,match,match,L10_RD.png,1.0,1007.0
341,2,C,1,association,BuildUP,3,2.0,1.0,20.0,female,right,2.0,7.0,6.0,AVWS,LeftRight,match,match,L9_LD.png,1.0,468.0
342,2,C,1,association,BuildUP,3,2.0,1.0,20.0,female,right,2.0,7.0,7.0,AVWS,UpDown,UpDown,mismatch,L10_RD.png,1.0,1063.0
343,2,C,1,association,BuildUP,3,2.0,1.0,20.0,female,right,2.0,7.0,8.0,AVWS,UpDown,UpDown,mismatch,L10_RU.png,1.0,2332.0
344,2,C,1,association,BuildUP,3,2.0,1.0,20.0,female,right,2.0,7.0,9.0,AVWS,LeftRight,miroir,mismatch,L9_LD.png,0.0,840.0
345,2,C,1,association,BuildUP,3,2.0,1.0,20.0,female,right,2.0,7.0,10.0,AVWS,control,diffLettre,mismatch,L11_RD.png,1.0,844.0
346,2,C,1,association,BuildUP,3,2.0,1.0,20.0,female,right,2.0,7.0,11.0,AVWS,UpDown,match,match,L10_RU.png,0.0,1852.0
347,2,C,1,association,BuildUP,3,2.0,1.0,20.0,female,right,2.0,7.0,12.0,AVWS,LeftRight,miroir,mismatch,L9_RD.png,0.0,1227.0
348,2,C,1,association,BuildUP,3,2.0,1.0,20.0,female,right,2.0,8.0,1.0,AVWS,new,miroir,mismatch,L10_RD.png,1.0,1093.0
349,2,C,1,association,BuildUP,3,2.0,1.0,20.0,female,right,2.0,8.0,2.0,AVWS,new,diffLettre,mismatch,L9_LD.png,1.0,511.0
350,2,C,1,association,BuildUP,3,2.0,1.0,20.0,female,right,2.0,8.0,3.0,AVWS,new,miroir,mismatch,L10_RU.png,1.0,512.0
351,2,C,1,association,BuildUP,3,2.0,1.0,20.0,female,right,2.0,8.0,4.0,AVWS,new,UpDown,mismatch,L12_LD.png,1.0,820.0
352,2,C,1,association,BuildUP,3,2.0,1.0,20.0,female,right,2.0,8.0,5.0,AVWS,control,match,match,L11_RD.png,1.0,607.0
353,2,C,1,association,BuildUP,3,2.0,1.0,20.0,female,right,2.0,8.0,6.0,AVWS,control,match,match,L12_LD.png,1.0,556.0
354,2,C,1,association,BuildUP,3,2.0,1.0,20.0,female,right,2.0,8.0,7.0,AVWS,new,UpDown,mismatch,L11_RD.png,1.0,631.0
355,2,C,1,association,BuildUP,3,2.0,1.0,20.0,female,right,2.0,8.0,8.0,AVWS,LeftRight,match,match,L9_LD.png,1.0,420.0
356,2,C,1,association,BuildUP,3,2.0,1.0,20.0,female,right,2.0,8.0,9.0,AVWS,UpDown,match,match,L10_RU.png,1.0,638.0
357,2,C,1,association,BuildUP,3,2.0,1.0,20.0,female,right,2.0,8.0,10.0,AVWS,LeftRight,match,match,L9_RD.png,1.0,708.0
358,2,C,1,association,BuildUP,3,2.0,1.0,20.0,female,right,2.0,8.0,11.0,AVWS,UpDown,match,match,L10_RD.png,1.0,860.0
359,2,C,1,association,BuildUP,3,2.0,1.0,20.0,female,right,2.0,8.0,12.0,AVWS,new,diffLettre,mismatch,L9_RD.png,1.0,837.0
360,2,C,1,association,BuildUP,3,2.0,1.0,20.0,female,right,2.0,9.0,1.0,AVWS,control,match,match,L11_RD.png,1.0,504.0
361,2,C,1,association,BuildUP,3,2.0,1.0,20.0,female,right,2.0,9.0,2.0,AVWS,new,UpDown,mismatch,L9_RD.png,1.0,796.0
362,2,C,1,association,BuildUP,3,2.0,1.0,20.0,female,right,2.0,9.0,3.0,AVWS,LeftRight,match,match,L9_RD.png,1.0,730.0
363,2,C,1,association,BuildUP,3,2.0,1.0,20.0,female,right,2.0,9.0,4.0,AVWS,new,UpDown,mismatch,L9_LD.png,1.0,358.0
364,2,C,1,association,BuildUP,3,2.0,1.0,20.0,female,right,2.0,9.0,5.0,AVWS,LeftRight,diffLettre,mismatch,L10_RD.png,1.0,620.0
365,2,C,1,association,BuildUP,3,2.0,1.0,20.0,female,right,2.0,9.0,6.0,AVWS,control,match,match,L12_LD.png,1.0,520.0
366,2,C,1,association,BuildUP,3,2.0,1.0,20.0,female,right,2.0,9.0,7.0,AVWS,new,miroir,mismatch,L12_LD.png,1.0,412.0
367,2,C,1,association,BuildUP,3,2.0,1.0,20.0,female,right,2.0,9.0,8.0,AVWS,UpDown,match,match,L10_RD.png,1.0,1426.0
368,2,C,1,association,BuildUP,3,2.0,1.0,20.0,female,right,2.0,9.0,9.0,AVWS,new,miroir,mismatch,L11_RD.png,1.0,693.0
369,2,C,1,association,BuildUP,3,2.0,1.0,20.0,female,right,2.0,9.0,10.0,AVWS,control,diffLettre,mismatch,L10_RU.png,1.0,589.0
370,2,C,1,association,BuildUP,3,2.0,1.0,20.0,female,right,2.0,9.0,11.0,AVWS,UpDown,match,match,L10_RU.png,1.0,547.0
371,2,C,1,association,BuildUP,3,2.0,1.0,20.0,female,right,2.0,9.0,12.0,AVWS,LeftRight,match,match,L9_LD.png,1.0,429.0
372,2,C,1,association,BuildUP,3,2.0,1.0,20.0,female,right,2.0,10.0,1.0,AVWS,LeftRight,match,match,L9_LD.png,1.0,545.0
373,2,C,1,association,BuildUP,3,2.0,1.0,20.0,female,right,2.0,10.0,2.0,AVWS,new,UpDown,mismatch,L9_RD.png,1.0,1390.0
374,2,C,1,association,BuildUP,3,2.0,1.0,20.0,female,right,2.0,10.0,3.0,AVWS,UpDown,match,match,L10_RU.png,1.0,590.0
375,2,C,1,association,BuildUP,3,2.0,1.0,20.0,female,right,2.0,10.0,4.0,AVWS,new,miroir,mismatch,L12_LD.png,1.0,613.0
376,2,C,1,association,BuildUP,3,2.0,1.0,20.0,female,right,2.0,10.0,5.0,AVWS,UpDown,match,match,L10_RD.png,1.0,1304.0
377,2,C,1,association,BuildUP,3,2.0,1.0,20.0,female,right,2.0,10.0,6.0,AVWS,UpDown,diffLettre,mismatch,L11_RD.png,1.0,1024.0
378,2,C,1,association,BuildUP,3,2.0,1.0,20.0,female,right,2.0,10.0,7.0,AVWS,UpDown,UpDown,mismatch,L10_RD.png,1.0,981.0
379,2,C,1,association,BuildUP,3,2.0,1.0,20.0,female,right,2.0,10.0,8.0,AVWS,new,miroir,mismatch,L10_RU.png,1.0,907.0
380,2,C,1,association,BuildUP,3,2.0,1.0,20.0,female,right,2.0,10.0,9.0,AVWS,LeftRight,match,match,L9_RD.png,1.0,713.0
381,2,C,1,association,BuildUP,3,2.0,1.0,20.0,female,right,2.0,10.0,10.0,AVWS,control,match,match,L12_LD.png,1.0,538.0
382,2,C,1,association,BuildUP,3,2.0,1.0,20.0,female,right,2.0,10.0,11.0,AVWS,control,match,match,L11_RD.png,1.0,582.0
383,2,C,1,association,BuildUP,3,2.0,1.0,20.0,female,right,2.0,10.0,12.0,AVWS,new,diffLettre,mismatch,L9_LD.png,1.0,354.0
384,2,C,1,association,BuildUP,3,2.0,1.0,20.0,female,right,2.0,11.0,1.0,AVWS,control,match,match,L12_LD.png,1.0,502.0
385,2,C,1,association,BuildUP,3,2.0,1.0,20.0,female,right,2.0,11.0,2.0,AVWS,LeftRight,miroir,mismatch,L9_RD.png,0.0,880.0
386,2,C,1,association,BuildUP,3,2.0,1.0,20.0,female,right,2.0,11.0,3.0,AVWS,LeftRight,match,match,L9_RD.png,1.0,820.0
387,2,C,1,association,BuildUP,3,2.0,1.0,20.0,female,right,2.0,11.0,4.0,AVWS,new,UpDown,mismatch,L11_RD.png,1.0,616.0
388,2,C,1,association,BuildUP,3,2.0,1.0,20.0,female,right,2.0,11.0,5.0,AVWS,UpDown,match,match,L10_RU.png,1.0,747.0
389,2,C,1,association,BuildUP,3,2.0,1.0,20.0,female,right,2.0,11.0,6.0,AVWS,LeftRight,match,match,L9_LD.png,1.0,434.0
390,2,C,1,association,BuildUP,3,2.0,1.0,20.0,female,right,2.0,11.0,7.0,AVWS,new,diffLettre,mismatch,L10_RU.png,1.0,603.0
391,2,C,1,association,BuildUP,3,2.0,1.0,20.0,female,right,2.0,11.0,8.0,AVWS,new,miroir,mismatch,L10_RD.png,1.0,465.0
392,2,C,1,association,BuildUP,3,2.0,1.0,20.0,female,right,2.0,11.0,9.0,AVWS,UpDown,diffLettre,mismatch,L12_LD.png,1.0,731.0
393,2,C,1,association,BuildUP,3,2.0,1.0,20.0,female,right,2.0,11.0,10.0,AVWS,new,UpDown,mismatch,L9_LD.png,1.0,423.0
394,2,C,1,association,BuildUP,3,2.0,1.0,20.0,female,right,2.0,11.0,11.0,AVWS,UpDown,match,match,L10_RD.png,1.0,526.0
395,2,C,1,association,BuildUP,3,2.0,1.0,20.0,female,right,2.0,11.0,12.0,AVWS,control,match,match,L11_RD.png,1.0,547.0
786,5,C,2,association,AV,2,5.0,2.0,19.0,female,right,5.0,7.0,1.0,AVWS,LeftRight,match,match,L9_LD.png,1.0,1122.0
787,5,C,2,association,AV,2,5.0,2.0,19.0,female,right,5.0,7.0,2.0,AVWS,control,diffLettre,mismatch,L12_LD.png,1.0,910.0
788,5,C,2,association,AV,2,5.0,2.0,19.0,female,right,5.0,7.0,3.0,AVWS,UpDown,match,match,L10_RU.png,1.0,1379.0
789,5,C,2,association,AV,2,5.0,2.0,19.0,female,right,5.0,7.0,4.0,AVWS,control,match,match,L11_RD.png,1.0,1028.0
790,5,C,2,association,AV,2,5.0,2.0,19.0,female,right,5.0,7.0,5.0,AVWS,LeftRight,miroir,mismatch,L9_RD.png,1.0,1055.0
791,5,C,2,association,AV,2,5.0,2.0,19.0,female,right,5.0,7.0,6.0,AVWS,control,diffLettre,mismatch,L11_RD.png,1.0,913.0
792,5,C,2,association,AV,2,5.0,2.0,19.0,female,right,5.0,7.0,7.0,AVWS,UpDown,UpDown,mismatch,L10_RU.png,1.0,848.0
793,5,C,2,association,AV,2,5.0,2.0,19.0,female,right,5.0,7.0,8.0,AVWS,UpDown,UpDown,mismatch,L10_RD.png,1.0,1182.0
794,5,C,2,association,AV,2,5.0,2.0,19.0,female,right,5.0,7.0,9.0,AVWS,LeftRight,match,match,L9_RD.png,1.0,857.0
795,5,C,2,association,AV,2,5.0,2.0,19.0,female,right,5.0,7.0,10.0,AVWS,control,match,match,L12_LD.png,1.0,1058.0
796,5,C,2,association,AV,2,5.0,2.0,19.0,female,right,5.0,7.0,11.0,AVWS,LeftRight,miroir,mismatch,L9_LD.png,1.0,630.0
797,5,C,2,association,AV,2,5.0,2.0,19.0,female,right,5.0,7.0,12.0,AVWS,UpDown,match,match,L10_RD.png,1.0,1047.0
798,5,C,2,association,AV,2,5.0,2.0,19.0,female,right,5.0,8.0,1.0,AVWS,new,miroir,mismatch,L10_RD.png,1.0,683.0
799,5,C,2,association,AV,2,5.0,2.0,19.0,female,right,5.0,8.0,2.0,AVWS,UpDown,match,match,L10_RU.png,1.0,775.0
800,5,C,2,association,AV,2,5.0,2.0,19.0,female,right,5.0,8.0,3.0,AVWS,new,UpDown,mismatch,L11_RD.png,1.0,807.0
801,5,C,2,association,AV,2,5.0,2.0,19.0,female,right,5.0,8.0,4.0,AVWS,control,match,match,L12_LD.png,1.0,775.0
802,5,C,2,association,AV,2,5.0,2.0,19.0,female,right,5.0,8.0,5.0,AVWS,UpDown,match,match,L10_RD.png,1.0,633.0
803,5,C,2,association,AV,2,5.0,2.0,19.0,female,right,5.0,8.0,6.0,AVWS,LeftRight,match,match,L9_LD.png,1.0,699.0
804,5,C,2,association,AV,2,5.0,2.0,19.0,female,right,5.0,8.0,7.0,AVWS,LeftRight,match,match,L9_RD.png,1.0,783.0
805,5,C,2,association,AV,2,5.0,2.0,19.0,female,right,5.0,8.0,8.0,AVWS,control,match,match,L11_RD.png,1.0,895.0
806,5,C,2,association,AV,2,5.0,2.0,19.0,female,right,5.0,8.0,9.0,AVWS,new,UpDown,mismatch,L12_LD.png,1.0,848.0
807,5,C,2,association,AV,2,5.0,2.0,19.0,female,right,5.0,8.0,10.0,AVWS,new,diffLettre,mismatch,L9_RD.png,1.0,882.0
808,5,C,2,association,AV,2,5.0,2.0,19.0,female,right,5.0,8.0,11.0,AVWS,new,miroir,mismatch,L10_RU.png,1.0,706.0
809,5,C,2,association,AV,2,5.0,2.0,19.0,female,right,5.0,8.0,12.0,AVWS,new,diffLettre,mismatch,L9_LD.png,1.0,633.0
810,5,C,2,association,AV,2,5.0,2.0,19.0,female,right,5.0,9.0,1.0,AVWS,UpDown,diffLettre,mismatch,L11_RD.png,1.0,1852.0
811,5,C,2,association,AV,2,5.0,2.0,19.0,female,right,5.0,9.0,2.0,AVWS,control,match,match,L11_RD.png,1.0,1176.0
812,5,C,2,association,AV,2,5.0,2.0,19.0,female,right,5.0,9.0,3.0,AVWS,UpDown,match,match,L10_RD.png,1.0,801.0
813,5,C,2,association,AV,2,5.0,2.0,19.0,female,right,5.0,9.0,4.0,AVWS,UpDown,match,match,L10_RU.png,1.0,992.0
814,5,C,2,association,AV,2,5.0,2.0,19.0,female,right,5.0,9.0,5.0,AVWS,new,miroir,mismatch,L10_RU.png,1.0,789.0
815,5,C,2,association,AV,2,5.0,2.0,19.0,female,right,5.0,9.0,6.0,AVWS,LeftRight,match,match,L9_RD.png,1.0,1015.0
816,5,C,2,association,AV,2,5.0,2.0,19.0,female,right,5.0,9.0,7.0,AVWS,control,match,match,L12_LD.png,1.0,1171.0
817,5,C,2,association,AV,2,5.0,2.0,19.0,female,right,5.0,9.0,8.0,AVWS,UpDown,UpDown,mismatch,L10_RD.png,0.0,919.0
818,5,C,2,association,AV,2,5.0,2.0,19.0,female,right,5.0,9.0,9.0,AVWS,LeftRight,match,match,L9_LD.png,1.0,792.0
819,5,C,2,association,AV,2,5.0,2.0,19.0,female,right,5.0,9.0,10.0,AVWS,new,UpDown,mismatch,L9_RD.png,1.0,1020.0
820,5,C,2,association,AV,2,5.0,2.0,19.0,female,right,5.0,9.0,11.0,AVWS,new,diffLettre,mismatch,L9_LD.png,1.0,623.0
821,5,C,2,association,AV,2,5.0,2.0,19.0,female,right,5.0,9.0,12.0,AVWS,new,miroir,mismatch,L12_LD.png,1.0,786.0
822,5,C,2,association,AV,2,5.0,2.0,19.0,female,right,5.0,10.0,1.0,AVWS,new,miroir,mismatch,L11_RD.png,1.0,1206.0
823,5,C,2,association,AV,2,5.0,2.0,19.0,female,right,5.0,10.0,2.0,AVWS,control,diffLettre,mismatch,L10_RU.png,1.0,748.0
824,5,C,2,association,AV,2,5.0,2.0,19.0,female,right,5.0,10.0,3.0,AVWS,new,UpDown,mismatch,L9_RD.png,1.0,848.0
825,5,C,2,association,AV,2,5.0,2.0,19.0,female,right,5.0,10.0,4.0,AVWS,LeftRight,diffLettre,mismatch,L10_RD.png,1.0,920.0
826,5,C,2,association,AV,2,5.0,2.0,19.0,female,right,5.0,10.0,5.0,AVWS,control,match,match,L12_LD.png,1.0,1010.0
827,5,C,2,association,AV,2,5.0,2.0,19.0,female,right,5.0,10.0,6.0,AVWS,LeftRight,match,match,L9_RD.png,1.0,975.0
828,5,C,2,association,AV,2,5.0,2.0,19.0,female,right,5.0,10.0,7.0,AVWS,control,match,match,L11_RD.png,1.0,1000.0
829,5,C,2,association,AV,2,5.0,2.0,19.0,female,right,5.0,10.0,8.0,AVWS,UpDown,match,match,L10_RU.png,1.0,750.0
830,5,C,2,association,AV,2,5.0,2.0,19.0,female,right,5.0,10.0,9.0,AVWS,new,miroir,mismatch,L12_LD.png,1.0,916.0
831,5,C,2,association,AV,2,5.0,2.0,19.0,female,right,5.0,10.0,10.0,AVWS,UpDown,match,match,L10_RD.png,1.0,819.0
832,5,C,2,association,AV,2,5.0,2.0,19.0,female,right,5.0,10.0,11.0,AVWS,LeftRight,match,match,L9_LD.png,1.0,689.0
833,5,C,2,association,AV,2,5.0,2.0,19.0,female,right,5.0,10.0,12.0,AVWS,new,UpDown,mismatch,L9_LD.png,1.0,635.0
834,5,C,2,association,AV,2,5.0,2.0,19.0,female,right,5.0,11.0,1.0,AVWS,new,UpDown,mismatch,L11_RD.png,1.0,1392.0
835,5,C,2,association,AV,2,5.0,2.0,19.0,female,right,5.0,11.0,2.0,AVWS,new,diffLettre,mismatch,L10_RU.png,1.0,978.0
836,5,C,2,association,AV,2,5.0,2.0,19.0,female,right,5.0,11.0,3.0,AVWS,control,match,match,L11_RD.png,1.0,1050.0
837,5,C,2,association,AV,2,5.0,2.0,19.0,female,right,5.0,11.0,4.0,AVWS,UpDown,diffLettre,mismatch,L12_LD.png,1.0,799.0
838,5,C,2,association,AV,2,5.0,2.0,19.0,female,right,5.0,11.0,5.0,AVWS,UpDown,match,match,L10_RU.png,1.0,769.0
839,5,C,2,association,AV,2,5.0,2.0,19.0,female,right,5.0,11.0,6.0,AVWS,UpDown,match,match,L10_RD.png,1.0,875.0
840,5,C,2,association,AV,2,5.0,2.0,19.0,female,right,5.0,11.0,7.0,AVWS,LeftRight,miroir,mismatch,L9_RD.png,1.0,1180.0
841,5,C,2,association,AV,2,5.0,2.0,19.0,female,right,5.0,11.0,8.0,AVWS,new,UpDown,mismatch,L9_LD.png,1.0,916.0
842,5,C,2,association,AV,2,5.0,2.0,19.0,female,right,5.0,11.0,9.0,AVWS,LeftRight,match,match,L9_LD.png,1.0,828.0
843,5,C,2,association,AV,2,5.0,2.0,19.0,female,right,5.0,11.0,10.0,AVWS,new,miroir,mismatch,L10_RD.png,1.0,728.0
844,5,C,2,association,AV,2,5.0,2.0,19.0,female,right,5.0,11.0,11.0,AVWS,control,match,match,L12_LD.png,1.0,822.0
845,5,C,2,association,AV,2,5.0,2.0,19.0,female,right,5.0,11.0,12.0,AVWS,LeftRight,match,match,L9_RD.png,1.0,913.0
852,5,B,2,association,LowCOG,3,5.0,2.0,19.0,female,right,5.0,7.0,1.0,AVW,control,match,match,L7_LD.png,1.0,825.0
853,5,B,2,association,LowCOG,3,5.0,2.0,19.0,female,right,5.0,7.0,2.0,AVW,control,diffLettre,mismatch,L7_LD.png,1.0,716.0
854,5,B,2,association,LowCOG,3,5.0,2.0,19.0,female,right,5.0,7.0,3.0,AVW,control,match,match,L8_RD.png,1.0,660.0
855,5,B,2,association,LowCOG,3,5.0,2.0,19.0,female,right,5.0,7.0,4.0,AVW,control,diffLettre,mismatch,L8_RD.png,1.0,760.0
856,5,B,2,association,LowCOG,3,5.0,2.0,19.0,female,right,5.0,7.0,5.0,AVW,UpDown,UpDown,mismatch,L6_LD.png,1.0,1046.0
857,5,B,2,association,LowCOG,3,5.0,2.0,19.0,female,right,5.0,7.0,6.0,AVW,LeftRight,miroir,mismatch,L5_RD.png,1.0,1396.0
858,5,B,2,association,LowCOG,3,5.0,2.0,19.0,female,right,5.0,7.0,7.0,AVW,UpDown,match,match,L6_LD.png,1.0,1907.0
859,5,B,2,association,LowCOG,3,5.0,2.0,19.0,female,right,5.0,7.0,8.0,AVW,LeftRight,match,match,L5_RD.png,1.0,1138.0
860,5,B,2,association,LowCOG,3,5.0,2.0,19.0,female,right,5.0,7.0,9.0,AVW,UpDown,match,match,L6_LU.png,1.0,1451.0
861,5,B,2,association,LowCOG,3,5.0,2.0,19.0,female,right,5.0,7.0,10.0,AVW,LeftRight,match,match,L5_LD.png,1.0,1358.0
862,5,B,2,association,LowCOG,3,5.0,2.0,19.0,female,right,5.0,7.0,11.0,AVW,LeftRight,miroir,mismatch,L5_LD.png,1.0,833.0
863,5,B,2,association,LowCOG,3,5.0,2.0,19.0,female,right,5.0,7.0,12.0,AVW,UpDown,UpDown,mismatch,L6_LU.png,1.0,763.0
864,5,B,2,association,LowCOG,3,5.0,2.0,19.0,female,right,5.0,8.0,1.0,AVW,new,UpDown,mismatch,L8_RD.png,1.0,946.0
865,5,B,2,association,LowCOG,3,5.0,2.0,19.0,female,right,5.0,8.0,2.0,AVW,control,match,match,L8_RD.png,1.0,696.0
866,5,B,2,association,LowCOG,3,5.0,2.0,19.0,female,right,5.0,8.0,3.0,AVW,new,UpDown,mismatch,L7_LD.png,1.0,853.0
867,5,B,2,association,LowCOG,3,5.0,2.0,19.0,female,right,5.0,8.0,4.0,AVW,UpDown,match,match,L6_LU.png,1.0,779.0
868,5,B,2,association,LowCOG,3,5.0,2.0,19.0,female,right,5.0,8.0,5.0,AVW,UpDown,match,match,L6_LD.png,1.0,916.0
869,5,B,2,association,LowCOG,3,5.0,2.0,19.0,female,right,5.0,8.0,6.0,AVW,new,miroir,mismatch,L6_LD.png,1.0,928.0
870,5,B,2,association,LowCOG,3,5.0,2.0,19.0,female,right,5.0,8.0,7.0,AVW,LeftRight,match,match,L5_RD.png,1.0,1030.0
871,5,B,2,association,LowCOG,3,5.0,2.0,19.0,female,right,5.0,8.0,8.0,AVW,control,match,match,L7_LD.png,1.0,770.0
872,5,B,2,association,LowCOG,3,5.0,2.0,19.0,female,right,5.0,8.0,9.0,AVW,new,diffLettre,mismatch,L5_LD.png,1.0,884.0
873,5,B,2,association,LowCOG,3,5.0,2.0,19.0,female,right,5.0,8.0,10.0,AVW,LeftRight,match,match,L5_LD.png,1.0,825.0
874,5,B,2,association,LowCOG,3,5.0,2.0,19.0,female,right,5.0,8.0,11.0,AVW,new,miroir,mismatch,L6_LU.png,1.0,706.0
875,5,B,2,association,LowCOG,3,5.0,2.0,19.0,female,right,5.0,8.0,12.0,AVW,UpDown,diffLettre,mismatch,L5_RD.png,1.0,1222.0
876,5,B,2,association,LowCOG,3,5.0,2.0,19.0,female,right,5.0,9.0,1.0,AVW,new,UpDown,mismatch,L5_RD.png,1.0,814.0
877,5,B,2,association,LowCOG,3,5.0,2.0,19.0,female,right,5.0,9.0,2.0,AVW,UpDown,match,match,L6_LU.png,1.0,685.0
878,5,B,2,association,LowCOG,3,5.0,2.0,19.0,female,right,5.0,9.0,3.0,AVW,new,miroir,mismatch,L6_LD.png,1.0,578.0
879,5,B,2,association,LowCOG,3,5.0,2.0,19.0,female,right,5.0,9.0,4.0,AVW,new,diffLettre,mismatch,L7_LD.png,1.0,674.0
880,5,B,2,association,LowCOG,3,5.0,2.0,19.0,female,right,5.0,9.0,5.0,AVW,LeftRight,diffLettre,mismatch,L5_LD.png,1.0,836.0
881,5,B,2,association,LowCOG,3,5.0,2.0,19.0,female,right,5.0,9.0,6.0,AVW,control,match,match,L8_RD.png,1.0,742.0
882,5,B,2,association,LowCOG,3,5.0,2.0,19.0,female,right,5.0,9.0,7.0,AVW,control,match,match,L7_LD.png,1.0,589.0
883,5,B,2,association,LowCOG,3,5.0,2.0,19.0,female,right,5.0,9.0,8.0,AVW,new,miroir,mismatch,L8_RD.png,1.0,760.0
884,5,B,2,association,LowCOG,3,5.0,2.0,19.0,female,right,5.0,9.0,9.0,AVW,UpDown,match,match,L6_LD.png,1.0,1339.0
885,5,B,2,association,LowCOG,3,5.0,2.0,19.0,female,right,5.0,9.0,10.0,AVW,UpDown,UpDown,mismatch,L6_LU.png,1.0,1003.0
886,5,B,2,association,LowCOG,3,5.0,2.0,19.0,female,right,5.0,9.0,11.0,AVW,LeftRight,match,match,L5_RD.png,1.0,794.0
887,5,B,2,association,LowCOG,3,5.0,2.0,19.0,female,right,5.0,9.0,12.0,AVW,LeftRight,match,match,L5_LD.png,1.0,656.0
888,5,B,2,association,LowCOG,3,5.0,2.0,19.0,female,right,5.0,10.0,1.0,AVW,new,diffLettre,mismatch,L6_LU.png,1.0,608.0
889,5,B,2,association,LowCOG,3,5.0,2.0,19.0,female,right,5.0,10.0,2.0,AVW,new,miroir,mismatch,L7_LD.png,1.0,783.0
890,5,B,2,association,LowCOG,3,5.0,2.0,19.0,female,right,5.0,10.0,3.0,AVW,LeftRight,match,match,L5_LD.png,1.0,476.0
891,5,B,2,association,LowCOG,3,5.0,2.0,19.0,female,right,5.0,10.0,4.0,AVW,UpDown,match,match,L6_LU.png,1.0,682.0
892,5,B,2,association,LowCOG,3,5.0,2.0,19.0,female,right,5.0,10.0,5.0,AVW,new,UpDown,mismatch,L5_LD.png,1.0,493.0
893,5,B,2,association,LowCOG,3,5.0,2.0,19.0,female,right,5.0,10.0,6.0,AVW,new,miroir,mismatch,L8_RD.png,1.0,703.0
894,5,B,2,association,LowCOG,3,5.0,2.0,19.0,female,right,5.0,10.0,7.0,AVW,new,UpDown,mismatch,L5_RD.png,1.0,656.0
895,5,B,2,association,LowCOG,3,5.0,2.0,19.0,female,right,5.0,10.0,8.0,AVW,UpDown,match,match,L6_LD.png,1.0,569.0
896,5,B,2,association,LowCOG,3,5.0,2.0,19.0,female,right,5.0,10.0,9.0,AVW,control,diffLettre,mismatch,L6_LD.png,1.0,1451.0
897,5,B,2,association,LowCOG,3,5.0,2.0,19.0,female,right,5.0,10.0,10.0,AVW,LeftRight,match,match,L5_RD.png,1.0,724.0
898,5,B,2,association,LowCOG,3,5.0,2.0,19.0,female,right,5.0,10.0,11.0,AVW,control,match,match,L8_RD.png,1.0,649.0
899,5,B,2,association,LowCOG,3,5.0,2.0,19.0,female,right,5.0,10.0,12.0,AVW,control,match,match,L7_LD.png,1.0,659.0
900,5,B,2,association,LowCOG,3,5.0,2.0,19.0,female,right,5.0,11.0,1.0,AVW,LeftRight,match,match,L5_RD.png,1.0,726.0
901,5,B,2,association,LowCOG,3,5.0,2.0,19.0,female,right,5.0,11.0,2.0,AVW,new,miroir,mismatch,L6_LU.png,1.0,713.0
902,5,B,2,association,LowCOG,3,5.0,2.0,19.0,female,right,5.0,11.0,3.0,AVW,UpDown,match,match,L6_LD.png,1.0,779.0
903,5,B,2,association,LowCOG,3,5.0,2.0,19.0,female,right,5.0,11.0,4.0,AVW,new,UpDown,mismatch,L7_LD.png,1.0,556.0
904,5,B,2,association,LowCOG,3,5.0,2.0,19.0,female,right,5.0,11.0,5.0,AVW,control,match,match,L8_RD.png,1.0,507.0
905,5,B,2,association,LowCOG,3,5.0,2.0,19.0,female,right,5.0,11.0,6.0,AVW,UpDown,diffLettre,mismatch,L8_RD.png,1.0,543.0
906,5,B,2,association,LowCOG,3,5.0,2.0,19.0,female,right,5.0,11.0,7.0,AVW,control,match,match,L7_LD.png,1.0,580.0
907,5,B,2,association,LowCOG,3,5.0,2.0,19.0,female,right,5.0,11.0,8.0,AVW,LeftRight,miroir,mismatch,L5_RD.png,0.0,605.0
908,5,B,2,association,LowCOG,3,5.0,2.0,19.0,female,right,5.0,11.0,9.0,AVW,control,UpDown,mismatch,L5_LD.png,1.0,400.0
909,5,B,2,association,LowCOG,3,5.0,2.0,19.0,female,right,5.0,11.0,10.0,AVW,LeftRight,match,match,L5_LD.png,1.0,433.0
910,5,B,2,association,LowCOG,3,5.0,2.0,19.0,female,right,5.0,11.0,11.0,AVW,new,diffLettre,mismatch,L6_LD.png,1.0,599.0
911,5,B,2,association,LowCOG,3,5.0,2.0,19.0,female,right,5.0,11.0,12.0,AVW,UpDown,match,match,L6_LU.png,1.0,461.0
918,5,A,2,association,BuildUP,1,5.0,2.0,19.0,female,right,5.0,7.0,1.0,AV,LeftRight,match,match,L1_RU.png,1.0,1536.0
919,5,A,2,association,BuildUP,1,5.0,2.0,19.0,female,right,5.0,7.0,2.0,AV,UpDown,UpDown,mismatch,L2_RD.png,0.0,1431.0
920,5,A,2,association,BuildUP,1,5.0,2.0,19.0,female,right,5.0,7.0,3.0,AV,UpDown,match,match,L2_RU.png,0.0,985.0
921,5,A,2,association,BuildUP,1,5.0,2.0,19.0,female,right,5.0,7.0,4.0,AV,control,match,match,L3_LU.png,1.0,894.0
922,5,A,2,association,BuildUP,1,5.0,2.0,19.0,female,right,5.0,7.0,5.0,AV,LeftRight,miroir,mismatch,L1_RU.png,1.0,880.0
923,5,A,2,association,BuildUP,1,5.0,2.0,19.0,female,right,5.0,7.0,6.0,AV,UpDown,match,match,L2_RD.png,0.0,1936.0
924,5,A,2,association,BuildUP,1,5.0,2.0,19.0,female,right,5.0,7.0,7.0,AV,LeftRight,miroir,mismatch,L1_LU.png,1.0,924.0
925,5,A,2,association,BuildUP,1,5.0,2.0,19.0,female,right,5.0,7.0,8.0,AV,LeftRight,match,match,L1_LU.png,1.0,1049.0
926,5,A,2,association,BuildUP,1,5.0,2.0,19.0,female,right,5.0,7.0,9.0,AV,UpDown,UpDown,mismatch,L2_RU.png,0.0,1016.0
927,5,A,2,association,BuildUP,1,5.0,2.0,19.0,female,right,5.0,7.0,10.0,AV,control,match,match,L4_RU.png,1.0,1318.0
928,5,A,2,association,BuildUP,1,5.0,2.0,19.0,female,right,5.0,7.0,11.0,AV,control,diffLettre,mismatch,L3_LU.png,1.0,799.0
929,5,A,2,association,BuildUP,1,5.0,2.0,19.0,female,right,5.0,7.0,12.0,AV,control,diffLettre,mismatch,L4_RU.png,1.0,854.0
930,5,A,2,association,BuildUP,1,5.0,2.0,19.0,female,right,5.0,8.0,1.0,AV,UpDown,match,match,L2_RU.png,0.0,1103.0
931,5,A,2,association,BuildUP,1,5.0,2.0,19.0,female,right,5.0,8.0,2.0,AV,control,match,match,L3_LU.png,1.0,710.0
932,5,A,2,association,BuildUP,1,5.0,2.0,19.0,female,right,5.0,8.0,3.0,AV,control,match,match,L4_RU.png,1.0,878.0
933,5,A,2,association,BuildUP,1,5.0,2.0,19.0,female,right,5.0,8.0,4.0,AV,LeftRight,match,match,L1_RU.png,1.0,1076.0
934,5,A,2,association,BuildUP,1,5.0,2.0,19.0,female,right,5.0,8.0,5.0,AV,new,UpDown,mismatch,L3_LU.png,1.0,665.0
935,5,A,2,association,BuildUP,1,5.0,2.0,19.0,female,right,5.0,8.0,6.0,AV,new,miroir,mismatch,L2_RU.png,1.0,820.0
936,5,A,2,association,BuildUP,1,5.0,2.0,19.0,female,right,5.0,8.0,7.0,AV,LeftRight,match,match,L1_LU.png,1.0,929.0
937,5,A,2,association,BuildUP,1,5.0,2.0,19.0,female,right,5.0,8.0,8.0,AV,new,diffLettre,mismatch,L1_RU.png,1.0,822.0
938,5,A,2,association,BuildUP,1,5.0,2.0,19.0,female,right,5.0,8.0,9.0,AV,new,UpDown,mismatch,L4_RU.png,1.0,726.0
939,5,A,2,association,BuildUP,1,5.0,2.0,19.0,female,right,5.0,8.0,10.0,AV,new,miroir,mismatch,L2_RD.png,1.0,703.0
940,5,A,2,association,BuildUP,1,5.0,2.0,19.0,female,right,5.0,8.0,11.0,AV,UpDown,diffLettre,mismatch,L1_LU.png,1.0,843.0
941,5,A,2,association,BuildUP,1,5.0,2.0,19.0,female,right,5.0,8.0,12.0,AV,UpDown,match,match,L2_RD.png,0.0,908.0
942,5,A,2,association,BuildUP,1,5.0,2.0,19.0,female,right,5.0,9.0,1.0,AV,UpDown,match,match,L2_RD.png,0.0,835.0
943,5,A,2,association,BuildUP,1,5.0,2.0,19.0,female,right,5.0,9.0,2.0,AV,control,match,match,L3_LU.png,1.0,720.0
944,5,A,2,association,BuildUP,1,5.0,2.0,19.0,female,right,5.0,9.0,3.0,AV,control,match,match,L4_RU.png,1.0,894.0
945,5,A,2,association,BuildUP,1,5.0,2.0,19.0,female,right,5.0,9.0,4.0,AV,new,UpDown,mismatch,L1_RU.png,1.0,693.0
946,5,A,2,association,BuildUP,1,5.0,2.0,19.0,female,right,5.0,9.0,5.0,AV,UpDown,UpDown,mismatch,L2_RU.png,0.0,749.0
947,5,A,2,association,BuildUP,1,5.0,2.0,19.0,female,right,5.0,9.0,6.0,AV,LeftRight,match,match,L1_LU.png,1.0,1221.0
948,5,A,2,association,BuildUP,1,5.0,2.0,19.0,female,right,5.0,9.0,7.0,AV,new,miroir,mismatch,L4_RU.png,1.0,573.0
949,5,A,2,association,BuildUP,1,5.0,2.0,19.0,female,right,5.0,9.0,8.0,AV,LeftRight,diffLettre,mismatch,L1_LU.png,0.0,602.0
950,5,A,2,association,BuildUP,1,5.0,2.0,19.0,female,right,5.0,9.0,9.0,AV,UpDown,match,match,L2_RU.png,0.0,965.0
951,5,A,2,association,BuildUP,1,5.0,2.0,19.0,female,right,5.0,9.0,10.0,AV,UpDown,diffLettre,mismatch,L3_LU.png,1.0,1420.0
952,5,A,2,association,BuildUP,1,5.0,2.0,19.0,female,right,5.0,9.0,11.0,AV,LeftRight,match,match,L1_RU.png,1.0,643.0
953,5,A,2,association,BuildUP,1,5.0,2.0,19.0,female,right,5.0,9.0,12.0,AV,new,miroir,mismatch,L2_RD.png,1.0,609.0
954,5,A,2,association,BuildUP,1,5.0,2.0,19.0,female,right,5.0,10.0,1.0,AV,UpDown,match,match,L2_RD.png,0.0,1294.0
955,5,A,2,association,BuildUP,1,5.0,2.0,19.0,female,right,5.0,10.0,2.0,AV,LeftRight,match,match,L1_RU.png,1.0,871.0
956,5,A,2,association,BuildUP,1,5.0,2.0,19.0,female,right,5.0,10.0,3.0,AV,control,diffLettre,mismatch,L2_RU.png,1.0,742.0
957,5,A,2,association,BuildUP,1,5.0,2.0,19.0,female,right,5.0,10.0,4.0,AV,new,UpDown,mismatch,L1_RU.png,1.0,679.0
958,5,A,2,association,BuildUP,1,5.0,2.0,19.0,female,right,5.0,10.0,5.0,AV,control,diffLettre,mismatch,L2_RD.png,1.0,792.0
959,5,A,2,association,BuildUP,1,5.0,2.0,19.0,female,right,5.0,10.0,6.0,AV,UpDown,match,match,L2_RU.png,1.0,1280.0
960,5,A,2,association,BuildUP,1,5.0,2.0,19.0,female,right,5.0,10.0,7.0,AV,new,miroir,mismatch,L3_LU.png,1.0,792.0
961,5,A,2,association,BuildUP,1,5.0,2.0,19.0,female,right,5.0,10.0,8.0,AV,control,match,match,L3_LU.png,1.0,650.0
962,5,A,2,association,BuildUP,1,5.0,2.0,19.0,female,right,5.0,10.0,9.0,AV,new,miroir,mismatch,L4_RU.png,1.0,676.0
963,5,A,2,association,BuildUP,1,5.0,2.0,19.0,female,right,5.0,10.0,10.0,AV,LeftRight,match,match,L1_LU.png,1.0,737.0
964,5,A,2,association,BuildUP,1,5.0,2.0,19.0,female,right,5.0,10.0,11.0,AV,control,match,match,L4_RU.png,1.0,711.0
965,5,A,2,association,BuildUP,1,5.0,2.0,19.0,female,right,5.0,10.0,12.0,AV,new,UpDown,mismatch,L1_LU.png,1.0,644.0
966,5,A,2,association,BuildUP,1,5.0,2.0,19.0,female,right,5.0,11.0,1.0,AV,control,match,match,L3_LU.png,1.0,607.0
967,5,A,2,association,BuildUP,1,5.0,2.0,19.0,female,right,5.0,11.0,2.0,AV,LeftRight,match,match,L1_RU.png,1.0,721.0
968,5,A,2,association,BuildUP,1,5.0,2.0,19.0,female,right,5.0,11.0,3.0,AV,control,match,match,L4_RU.png,1.0,673.0
969,5,A,2,association,BuildUP,1,5.0,2.0,19.0,female,right,5.0,11.0,4.0,AV,LeftRight,miroir,mismatch,L1_RU.png,1.0,770.0
970,5,A,2,association,BuildUP,1,5.0,2.0,19.0,female,right,5.0,11.0,5.0,AV,UpDown,diffLettre,mismatch,L4_RU.png,1.0,1038.0
971,5,A,2,association,BuildUP,1,5.0,2.0,19.0,female,right,5.0,11.0,6.0,AV,LeftRight,match,match,L1_LU.png,1.0,877.0
972,5,A,2,association,BuildUP,1,5.0,2.0,19.0,female,right,5.0,11.0,7.0,AV,new,UpDown,mismatch,L1_LU.png,1.0,638.0
973,5,A,2,association,BuildUP,1,5.0,2.0,19.0,female,right,5.0,11.0,8.0,AV,control,diffLettre,mismatch,L2_RD.png,1.0,764.0
974,5,A,2,association,BuildUP,1,5.0,2.0,19.0,female,right,5.0,11.0,9.0,AV,UpDown,match,match,L2_RU.png,0.0,892.0
975,5,A,2,association,BuildUP,1,5.0,2.0,19.0,female,right,5.0,11.0,10.0,AV,new,miroir,mismatch,L2_RU.png,1.0,737.0
976,5,A,2,association,BuildUP,1,5.0,2.0,19.0,female,right,5.0,11.0,11.0,AV,new,UpDown,mismatch,L3_LU.png,1.0,743.0
977,5,A,2,association,BuildUP,1,5.0,2.0,19.0,female,right,5.0,11.0,12.0,AV,UpDown,match,match,L2_RD.png,0.0,922.0
984,5,C,1,association,AV,2,5.0,1.0,19.0,female,right,5.0,7.0,1.0,AVWS,LeftRight,match,match,L9_RD.png,1.0,1072.0
985,5,C,1,association,AV,2,5.0,1.0,19.0,female,right,5.0,7.0,2.0,AVWS,UpDown,match,match,L10_RU.png,1.0,826.0
986,5,C,1,association,AV,2,5.0,1.0,19.0,female,right,5.0,7.0,3.0,AVWS,control,diffLettre,mismatch,L11_RD.png,0.0,1532.0
987,5,C,1,association,AV,2,5.0,1.0,19.0,female,right,5.0,7.0,4.0,AVWS,control,match,match,L12_LD.png,1.0,878.0
988,5,C,1,association,AV,2,5.0,1.0,19.0,female,right,5.0,7.0,5.0,AVWS,LeftRight,match,match,L9_LD.png,1.0,692.0
989,5,C,1,association,AV,2,5.0,1.0,19.0,female,right,5.0,7.0,6.0,AVWS,control,match,match,L11_RD.png,1.0,1047.0
990,5,C,1,association,AV,2,5.0,1.0,19.0,female,right,5.0,7.0,7.0,AVWS,LeftRight,miroir,mismatch,L9_RD.png,1.0,997.0
991,5,C,1,association,AV,2,5.0,1.0,19.0,female,right,5.0,7.0,8.0,AVWS,UpDown,match,match,L10_RD.png,1.0,775.0
992,5,C,1,association,AV,2,5.0,1.0,19.0,female,right,5.0,7.0,9.0,AVWS,control,diffLettre,mismatch,L12_LD.png,1.0,905.0
993,5,C,1,association,AV,2,5.0,1.0,19.0,female,right,5.0,7.0,10.0,AVWS,UpDown,UpDown,mismatch,L10_RD.png,1.0,842.0
994,5,C,1,association,AV,2,5.0,1.0,19.0,female,right,5.0,7.0,11.0,AVWS,LeftRight,miroir,mismatch,L9_LD.png,1.0,960.0
995,5,C,1,association,AV,2,5.0,1.0,19.0,female,right,5.0,7.0,12.0,AVWS,UpDown,UpDown,mismatch,L10_RU.png,1.0,815.0
996,5,C,1,association,AV,2,5.0,1.0,19.0,female,right,5.0,8.0,1.0,AVWS,new,miroir,mismatch,L10_RU.png,1.0,779.0
997,5,C,1,association,AV,2,5.0,1.0,19.0,female,right,5.0,8.0,2.0,AVWS,LeftRight,match,match,L9_LD.png,1.0,627.0
998,5,C,1,association,AV,2,5.0,1.0,19.0,female,right,5.0,8.0,3.0,AVWS,UpDown,match,match,L10_RU.png,1.0,832.0
999,5,C,1,association,AV,2,5.0,1.0,19.0,female,right,5.0,8.0,4.0,AVWS,new,diffLettre,mismatch,L9_LD.png,1.0,526.0
1000,5,C,1,association,AV,2,5.0,1.0,19.0,female,right,5.0,8.0,5.0,AVWS,control,match,match,L12_LD.png,1.0,990.0
1001,5,C,1,association,AV,2,5.0,1.0,19.0,female,right,5.0,8.0,6.0,AVWS,new,UpDown,mismatch,L11_RD.png,1.0,927.0
1002,5,C,1,association,AV,2,5.0,1.0,19.0,female,right,5.0,8.0,7.0,AVWS,LeftRight,match,match,L9_RD.png,1.0,870.0
1003,5,C,1,association,AV,2,5.0,1.0,19.0,female,right,5.0,8.0,8.0,AVWS,new,miroir,mismatch,L10_RD.png,1.0,653.0
1004,5,C,1,association,AV,2,5.0,1.0,19.0,female,right,5.0,8.0,9.0,AVWS,UpDown,match,match,L10_RD.png,1.0,660.0
1005,5,C,1,association,AV,2,5.0,1.0,19.0,female,right,5.0,8.0,10.0,AVWS,new,UpDown,mismatch,L12_LD.png,1.0,824.0
1006,5,C,1,association,AV,2,5.0,1.0,19.0,female,right,5.0,8.0,11.0,AVWS,new,diffLettre,mismatch,L9_RD.png,1.0,952.0
1007,5,C,1,association,AV,2,5.0,1.0,19.0,female,right,5.0,8.0,12.0,AVWS,control,match,match,L11_RD.png,1.0,786.0
1008,5,C,1,association,AV,2,5.0,1.0,19.0,female,right,5.0,9.0,1.0,AVWS,new,miroir,mismatch,L12_LD.png,1.0,939.0
1009,5,C,1,association,AV,2,5.0,1.0,19.0,female,right,5.0,9.0,2.0,AVWS,UpDown,match,match,L10_RD.png,1.0,698.0
1010,5,C,1,association,AV,2,5.0,1.0,19.0,female,right,5.0,9.0,3.0,AVWS,LeftRight,match,match,L9_RD.png,1.0,918.0
1011,5,C,1,association,AV,2,5.0,1.0,19.0,female,right,5.0,9.0,4.0,AVWS,UpDown,diffLettre,mismatch,L11_RD.png,1.0,1003.0
1012,5,C,1,association,AV,2,5.0,1.0,19.0,female,right,5.0,9.0,5.0,AVWS,control,match,match,L12_LD.png,1.0,1920.0
1013,5,C,1,association,AV,2,5.0,1.0,19.0,female,right,5.0,9.0,6.0,AVWS,UpDown,UpDown,mismatch,L10_RD.png,1.0,879.0
1014,5,C,1,association,AV,2,5.0,1.0,19.0,female,right,5.0,9.0,7.0,AVWS,new,UpDown,mismatch,L9_RD.png,1.0,1061.0
1015,5,C,1,association,AV,2,5.0,1.0,19.0,female,right,5.0,9.0,8.0,AVWS,new,miroir,mismatch,L10_RU.png,1.0,1155.0
1016,5,C,1,association,AV,2,5.0,1.0,19.0,female,right,5.0,9.0,9.0,AVWS,control,match,match,L11_RD.png,1.0,1254.0
1017,5,C,1,association,AV,2,5.0,1.0,19.0,female,right,5.0,9.0,10.0,AVWS,UpDown,match,match,L10_RU.png,0.0,1314.0
1018,5,C,1,association,AV,2,5.0,1.0,19.0,female,right,5.0,9.0,11.0,AVWS,LeftRight,match,match,L9_LD.png,1.0,728.0
1019,5,C,1,association,AV,2,5.0,1.0,19.0,female,right,5.0,9.0,12.0,AVWS,new,diffLettre,mismatch,L9_LD.png,1.0,651.0
1020,5,C,1,association,AV,2,5.0,1.0,19.0,female,right,5.0,10.0,1.0,AVWS,LeftRight,diffLettre,mismatch,L10_RD.png,1.0,990.0
1021,5,C,1,association,AV,2,5.0,1.0,19.0,female,right,5.0,10.0,2.0,AVWS,new,miroir,mismatch,L12_LD.png,1.0,1510.0
1022,5,C,1,association,AV,2,5.0,1.0,19.0,female,right,5.0,10.0,3.0,AVWS,new,miroir,mismatch,L11_RD.png,1.0,1434.0
1023,5,C,1,association,AV,2,5.0,1.0,19.0,female,right,5.0,10.0,4.0,AVWS,control,match,match,L12_LD.png,1.0,1051.0
1024,5,C,1,association,AV,2,5.0,1.0,19.0,female,right,5.0,10.0,5.0,AVWS,new,UpDown,mismatch,L9_LD.png,1.0,813.0
1025,5,C,1,association,AV,2,5.0,1.0,19.0,female,right,5.0,10.0,6.0,AVWS,UpDown,match,match,L10_RD.png,1.0,707.0
1026,5,C,1,association,AV,2,5.0,1.0,19.0,female,right,5.0,10.0,7.0,AVWS,LeftRight,match,match,L9_LD.png,1.0,1314.0
1027,5,C,1,association,AV,2,5.0,1.0,19.0,female,right,5.0,10.0,8.0,AVWS,UpDown,match,match,L10_RU.png,1.0,988.0
1028,5,C,1,association,AV,2,5.0,1.0,19.0,female,right,5.0,10.0,9.0,AVWS,new,UpDown,mismatch,L9_RD.png,1.0,939.0
1029,5,C,1,association,AV,2,5.0,1.0,19.0,female,right,5.0,10.0,10.0,AVWS,control,diffLettre,mismatch,L10_RU.png,1.0,813.0
1030,5,C,1,association,AV,2,5.0,1.0,19.0,female,right,5.0,10.0,11.0,AVWS,LeftRight,match,match,L9_RD.png,1.0,1125.0
1031,5,C,1,association,AV,2,5.0,1.0,19.0,female,right,5.0,10.0,12.0,AVWS,control,match,match,L11_RD.png,1.0,1196.0
1032,5,C,1,association,AV,2,5.0,1.0,19.0,female,right,5.0,11.0,1.0,AVWS,control,match,match,L12_LD.png,1.0,1004.0
1033,5,C,1,association,AV,2,5.0,1.0,19.0,female,right,5.0,11.0,2.0,AVWS,LeftRight,miroir,mismatch,L9_RD.png,1.0,1027.0
1034,5,C,1,association,AV,2,5.0,1.0,19.0,female,right,5.0,11.0,3.0,AVWS,new,miroir,mismatch,L10_RD.png,1.0,988.0
1035,5,C,1,association,AV,2,5.0,1.0,19.0,female,right,5.0,11.0,4.0,AVWS,UpDown,diffLettre,mismatch,L12_LD.png,1.0,1224.0
1036,5,C,1,association,AV,2,5.0,1.0,19.0,female,right,5.0,11.0,5.0,AVWS,UpDown,match,match,L10_RD.png,1.0,746.0
1037,5,C,1,association,AV,2,5.0,1.0,19.0,female,right,5.0,11.0,6.0,AVWS,UpDown,match,match,L10_RU.png,1.0,877.0
1038,5,C,1,association,AV,2,5.0,1.0,19.0,female,right,5.0,11.0,7.0,AVWS,LeftRight,match,match,L9_RD.png,1.0,1006.0
1039,5,C,1,association,AV,2,5.0,1.0,19.0,female,right,5.0,11.0,8.0,AVWS,control,match,match,L11_RD.png,1.0,1083.0
1040,5,C,1,association,AV,2,5.0,1.0,19.0,female,right,5.0,11.0,9.0,AVWS,new,diffLettre,mismatch,L10_RU.png,1.0,947.0
1041,5,C,1,association,AV,2,5.0,1.0,19.0,female,right,5.0,11.0,10.0,AVWS,LeftRight,match,match,L9_LD.png,1.0,792.0
1042,5,C,1,association,AV,2,5.0,1.0,19.0,female,right,5.0,11.0,11.0,AVWS,new,UpDown,mismatch,L9_LD.png,1.0,730.0
1043,5,C,1,association,AV,2,5.0,1.0,19.0,female,right,5.0,11.0,12.0,AVWS,new,UpDown,mismatch,L11_RD.png,1.0,1145.0
1050,5,B,1,association,LowCOG,3,5.0,1.0,19.0,female,right,5.0,7.0,1.0,AVW,control,match,match,L7_LD.png,1.0,989.0
1051,5,B,1,association,LowCOG,3,5.0,1.0,19.0,female,right,5.0,7.0,2.0,AVW,control,match,match,L8_RD.png,1.0,971.0
1052,5,B,1,association,LowCOG,3,5.0,1.0,19.0,female,right,5.0,7.0,3.0,AVW,UpDown,match,match,L6_LU.png,1.0,954.0
1053,5,B,1,association,LowCOG,3,5.0,1.0,19.0,female,right,5.0,7.0,4.0,AVW,LeftRight,miroir,mismatch,L5_LD.png,1.0,1593.0
1054,5,B,1,association,LowCOG,3,5.0,1.0,19.0,female,right,5.0,7.0,5.0,AVW,LeftRight,match,match,L5_RD.png,1.0,1399.0
1055,5,B,1,association,LowCOG,3,5.0,1.0,19.0,female,right,5.0,7.0,6.0,AVW,LeftRight,miroir,mismatch,L5_RD.png,1.0,1044.0
1056,5,B,1,association,LowCOG,3,5.0,1.0,19.0,female,right,5.0,7.0,7.0,AVW,control,diffLettre,mismatch,L7_LD.png,1.0,1260.0
1057,5,B,1,association,LowCOG,3,5.0,1.0,19.0,female,right,5.0,7.0,8.0,AVW,UpDown,UpDown,mismatch,L6_LD.png,1.0,1571.0
1058,5,B,1,association,LowCOG,3,5.0,1.0,19.0,female,right,5.0,7.0,9.0,AVW,UpDown,UpDown,mismatch,L6_LU.png,1.0,1447.0
1059,5,B,1,association,LowCOG,3,5.0,1.0,19.0,female,right,5.0,7.0,10.0,AVW,control,diffLettre,mismatch,L8_RD.png,0.0,2254.0
1060,5,B,1,association,LowCOG,3,5.0,1.0,19.0,female,right,5.0,7.0,11.0,AVW,LeftRight,match,match,L5_LD.png,1.0,1423.0
1061,5,B,1,association,LowCOG,3,5.0,1.0,19.0,female,right,5.0,7.0,12.0,AVW,UpDown,match,match,L6_LD.png,1.0,1470.0
1062,5,B,1,association,LowCOG,3,5.0,1.0,19.0,female,right,5.0,8.0,1.0,AVW,LeftRight,match,match,L5_LD.png,1.0,1769.0
1063,5,B,1,association,LowCOG,3,5.0,1.0,19.0,female,right,5.0,8.0,2.0,AVW,new,miroir,mismatch,L6_LU.png,1.0,1372.0
1064,5,B,1,association,LowCOG,3,5.0,1.0,19.0,female,right,5.0,8.0,3.0,AVW,LeftRight,match,match,L5_RD.png,1.0,1645.0
1065,5,B,1,association,LowCOG,3,5.0,1.0,19.0,female,right,5.0,8.0,4.0,AVW,control,match,match,L8_RD.png,1.0,1296.0
1066,5,B,1,association,LowCOG,3,5.0,1.0,19.0,female,right,5.0,8.0,5.0,AVW,UpDown,match,match,L6_LD.png,1.0,1279.0
1067,5,B,1,association,LowCOG,3,5.0,1.0,19.0,female,right,5.0,8.0,6.0,AVW,new,diffLettre,mismatch,L5_LD.png,1.0,1152.0
1068,5,B,1,association,LowCOG,3,5.0,1.0,19.0,female,right,5.0,8.0,7.0,AVW,new,miroir,mismatch,L6_LD.png,1.0,1332.0
1069,5,B,1,association,LowCOG,3,5.0,1.0,19.0,female,right,5.0,8.0,8.0,AVW,UpDown,diffLettre,mismatch,L5_RD.png,1.0,1307.0
1070,5,B,1,association,LowCOG,3,5.0,1.0,19.0,female,right,5.0,8.0,9.0,AVW,UpDown,match,match,L6_LU.png,1.0,999.0
1071,5,B,1,association,LowCOG,3,5.0,1.0,19.0,female,right,5.0,8.0,10.0,AVW,new,UpDown,mismatch,L8_RD.png,1.0,1089.0
1072,5,B,1,association,LowCOG,3,5.0,1.0,19.0,female,right,5.0,8.0,11.0,AVW,control,match,match,L7_LD.png,1.0,1056.0
1073,5,B,1,association,LowCOG,3,5.0,1.0,19.0,female,right,5.0,8.0,12.0,AVW,new,UpDown,mismatch,L7_LD.png,1.0,798.0
1074,5,B,1,association,LowCOG,3,5.0,1.0,19.0,female,right,5.0,9.0,1.0,AVW,control,match,match,L8_RD.png,1.0,888.0
1075,5,B,1,association,LowCOG,3,5.0,1.0,19.0,female,right,5.0,9.0,2.0,AVW,new,miroir,mismatch,L8_RD.png,1.0,881.0
1076,5,B,1,association,LowCOG,3,5.0,1.0,19.0,female,right,5.0,9.0,3.0,AVW,LeftRight,diffLettre,mismatch,L5_LD.png,1.0,937.0
1077,5,B,1,association,LowCOG,3,5.0,1.0,19.0,female,right,5.0,9.0,4.0,AVW,UpDown,UpDown,mismatch,L6_LU.png,1.0,989.0
1078,5,B,1,association,LowCOG,3,5.0,1.0,19.0,female,right,5.0,9.0,5.0,AVW,UpDown,match,match,L6_LD.png,1.0,970.0
1079,5,B,1,association,LowCOG,3,5.0,1.0,19.0,female,right,5.0,9.0,6.0,AVW,new,diffLettre,mismatch,L7_LD.png,1.0,732.0
1080,5,B,1,association,LowCOG,3,5.0,1.0,19.0,female,right,5.0,9.0,7.0,AVW,LeftRight,match,match,L5_RD.png,1.0,1068.0
1081,5,B,1,association,LowCOG,3,5.0,1.0,19.0,female,right,5.0,9.0,8.0,AVW,control,match,match,L7_LD.png,1.0,989.0
1082,5,B,1,association,LowCOG,3,5.0,1.0,19.0,female,right,5.0,9.0,9.0,AVW,UpDown,match,match,L6_LU.png,1.0,777.0
1083,5,B,1,association,LowCOG,3,5.0,1.0,19.0,female,right,5.0,9.0,10.0,AVW,LeftRight,match,match,L5_LD.png,1.0,1134.0
1084,5,B,1,association,LowCOG,3,5.0,1.0,19.0,female,right,5.0,9.0,11.0,AVW,new,UpDown,mismatch,L5_RD.png,1.0,822.0
1085,5,B,1,association,LowCOG,3,5.0,1.0,19.0,female,right,5.0,9.0,12.0,AVW,new,miroir,mismatch,L6_LD.png,1.0,1011.0
1086,5,B,1,association,LowCOG,3,5.0,1.0,19.0,female,right,5.0,10.0,1.0,AVW,control,diffLettre,mismatch,L6_LD.png,1.0,1013.0
1087,5,B,1,association,LowCOG,3,5.0,1.0,19.0,female,right,5.0,10.0,2.0,AVW,UpDown,match,match,L6_LU.png,1.0,674.0
1088,5,B,1,association,LowCOG,3,5.0,1.0,19.0,female,right,5.0,10.0,3.0,AVW,LeftRight,match,match,L5_LD.png,1.0,937.0
1089,5,B,1,association,LowCOG,3,5.0,1.0,19.0,female,right,5.0,10.0,4.0,AVW,control,match,match,L8_RD.png,1.0,834.0
1090,5,B,1,association,LowCOG,3,5.0,1.0,19.0,female,right,5.0,10.0,5.0,AVW,control,match,match,L7_LD.png,1.0,807.0
1091,5,B,1,association,LowCOG,3,5.0,1.0,19.0,female,right,5.0,10.0,6.0,AVW,LeftRight,match,match,L5_RD.png,1.0,1096.0
1092,5,B,1,association,LowCOG,3,5.0,1.0,19.0,female,right,5.0,10.0,7.0,AVW,new,miroir,mismatch,L8_RD.png,1.0,778.0
1093,5,B,1,association,LowCOG,3,5.0,1.0,19.0,female,right,5.0,10.0,8.0,AVW,new,miroir,mismatch,L7_LD.png,1.0,910.0
1094,5,B,1,association,LowCOG,3,5.0,1.0,19.0,female,right,5.0,10.0,9.0,AVW,new,UpDown,mismatch,L5_RD.png,1.0,878.0
1095,5,B,1,association,LowCOG,3,5.0,1.0,19.0,female,right,5.0,10.0,10.0,AVW,new,UpDown,mismatch,L5_LD.png,1.0,846.0
1096,5,B,1,association,LowCOG,3,5.0,1.0,19.0,female,right,5.0,10.0,11.0,AVW,new,diffLettre,mismatch,L6_LU.png,1.0,605.0
1097,5,B,1,association,LowCOG,3,5.0,1.0,19.0,female,right,5.0,10.0,12.0,AVW,UpDown,match,match,L6_LD.png,1.0,904.0
1098,5,B,1,association,LowCOG,3,5.0,1.0,19.0,female,right,5.0,11.0,1.0,AVW,control,match,match,L8_RD.png,1.0,888.0
1099,5,B,1,association,LowCOG,3,5.0,1.0,19.0,female,right,5.0,11.0,2.0,AVW,LeftRight,match,match,L5_LD.png,1.0,955.0
1100,5,B,1,association,LowCOG,3,5.0,1.0,19.0,female,right,5.0,11.0,3.0,AVW,UpDown,match,match,L6_LU.png,1.0,644.0
1101,5,B,1,association,LowCOG,3,5.0,1.0,19.0,female,right,5.0,11.0,4.0,AVW,control,match,match,L7_LD.png,1.0,850.0
1102,5,B,1,association,LowCOG,3,5.0,1.0,19.0,female,right,5.0,11.0,5.0,AVW,LeftRight,match,match,L5_RD.png,1.0,741.0
1103,5,B,1,association,LowCOG,3,5.0,1.0,19.0,female,right,5.0,11.0,6.0,AVW,UpDown,match,match,L6_LD.png,1.0,1149.0
1104,5,B,1,association,LowCOG,3,5.0,1.0,19.0,female,right,5.0,11.0,7.0,AVW,new,miroir,mismatch,L6_LU.png,1.0,547.0
1105,5,B,1,association,LowCOG,3,5.0,1.0,19.0,female,right,5.0,11.0,8.0,AVW,control,UpDown,mismatch,L5_LD.png,1.0,807.0
1106,5,B,1,association,LowCOG,3,5.0,1.0,19.0,female,right,5.0,11.0,9.0,AVW,new,UpDown,mismatch,L7_LD.png,1.0,857.0
1107,5,B,1,association,LowCOG,3,5.0,1.0,19.0,female,right,5.0,11.0,10.0,AVW,UpDown,diffLettre,mismatch,L8_RD.png,1.0,811.0
1108,5,B,1,association,LowCOG,3,5.0,1.0,19.0,female,right,5.0,11.0,11.0,AVW,new,diffLettre,mismatch,L6_LD.png,1.0,946.0
1109,5,B,1,association,LowCOG,3,5.0,1.0,19.0,female,right,5.0,11.0,12.0,AVW,LeftRight,miroir,mismatch,L5_RD.png,1.0,796.0
1116,5,A,1,association,BuildUP,1,5.0,1.0,19.0,female,right,5.0,7.0,1.0,AV,UpDown,match,match,L2_RU.png,1.0,1263.0
1117,5,A,1,association,BuildUP,1,5.0,1.0,19.0,female,right,5.0,7.0,2.0,AV,UpDown,match,match,L2_RD.png,1.0,1210.0
1118,5,A,1,association,BuildUP,1,5.0,1.0,19.0,female,right,5.0,7.0,3.0,AV,LeftRight,miroir,mismatch,L1_LU.png,1.0,940.0
1119,5,A,1,association,BuildUP,1,5.0,1.0,19.0,female,right,5.0,7.0,4.0,AV,LeftRight,match,match,L1_LU.png,1.0,895.0
1120,5,A,1,association,BuildUP,1,5.0,1.0,19.0,female,right,5.0,7.0,5.0,AV,LeftRight,match,match,L1_RU.png,1.0,857.0
1121,5,A,1,association,BuildUP,1,5.0,1.0,19.0,female,right,5.0,7.0,6.0,AV,control,diffLettre,mismatch,L4_RU.png,1.0,1316.0
1122,5,A,1,association,BuildUP,1,5.0,1.0,19.0,female,right,5.0,7.0,7.0,AV,LeftRight,miroir,mismatch,L1_RU.png,1.0,1178.0
1123,5,A,1,association,BuildUP,1,5.0,1.0,19.0,female,right,5.0,7.0,8.0,AV,control,match,match,L4_RU.png,1.0,836.0
1124,5,A,1,association,BuildUP,1,5.0,1.0,19.0,female,right,5.0,7.0,9.0,AV,control,diffLettre,mismatch,L3_LU.png,1.0,961.0
1125,5,A,1,association,BuildUP,1,5.0,1.0,19.0,female,right,5.0,7.0,10.0,AV,control,match,match,L3_LU.png,1.0,761.0
1126,5,A,1,association,BuildUP,1,5.0,1.0,19.0,female,right,5.0,7.0,11.0,AV,UpDown,UpDown,mismatch,L2_RU.png,1.0,1118.0
1127,5,A,1,association,BuildUP,1,5.0,1.0,19.0,female,right,5.0,7.0,12.0,AV,UpDown,UpDown,mismatch,L2_RD.png,1.0,1176.0
1128,5,A,1,association,BuildUP,1,5.0,1.0,19.0,female,right,5.0,8.0,1.0,AV,UpDown,match,match,L2_RU.png,1.0,1275.0
1129,5,A,1,association,BuildUP,1,5.0,1.0,19.0,female,right,5.0,8.0,2.0,AV,UpDown,diffLettre,mismatch,L1_LU.png,1.0,1366.0
1130,5,A,1,association,BuildUP,1,5.0,1.0,19.0,female,right,5.0,8.0,3.0,AV,new,miroir,mismatch,L2_RD.png,0.0,869.0
1131,5,A,1,association,BuildUP,1,5.0,1.0,19.0,female,right,5.0,8.0,4.0,AV,LeftRight,match,match,L1_RU.png,1.0,1854.0
1132,5,A,1,association,BuildUP,1,5.0,1.0,19.0,female,right,5.0,8.0,5.0,AV,control,match,match,L4_RU.png,1.0,952.0
1133,5,A,1,association,BuildUP,1,5.0,1.0,19.0,female,right,5.0,8.0,6.0,AV,control,match,match,L3_LU.png,1.0,946.0
1134,5,A,1,association,BuildUP,1,5.0,1.0,19.0,female,right,5.0,8.0,7.0,AV,LeftRight,match,match,L1_LU.png,1.0,1504.0
1135,5,A,1,association,BuildUP,1,5.0,1.0,19.0,female,right,5.0,8.0,8.0,AV,new,UpDown,mismatch,L4_RU.png,1.0,895.0
1136,5,A,1,association,BuildUP,1,5.0,1.0,19.0,female,right,5.0,8.0,9.0,AV,UpDown,match,match,L2_RD.png,1.0,952.0
1137,5,A,1,association,BuildUP,1,5.0,1.0,19.0,female,right,5.0,8.0,10.0,AV,new,miroir,mismatch,L2_RU.png,0.0,1108.0
1138,5,A,1,association,BuildUP,1,5.0,1.0,19.0,female,right,5.0,8.0,11.0,AV,new,diffLettre,mismatch,L1_RU.png,1.0,948.0
1139,5,A,1,association,BuildUP,1,5.0,1.0,19.0,female,right,5.0,8.0,12.0,AV,new,UpDown,mismatch,L3_LU.png,1.0,922.0
1140,5,A,1,association,BuildUP,1,5.0,1.0,19.0,female,right,5.0,9.0,1.0,AV,new,UpDown,mismatch,L1_RU.png,1.0,979.0
1141,5,A,1,association,BuildUP,1,5.0,1.0,19.0,female,right,5.0,9.0,2.0,AV,UpDown,diffLettre,mismatch,L3_LU.png,1.0,1710.0
1142,5,A,1,association,BuildUP,1,5.0,1.0,19.0,female,right,5.0,9.0,3.0,AV,LeftRight,match,match,L1_LU.png,1.0,1131.0
1143,5,A,1,association,BuildUP,1,5.0,1.0,19.0,female,right,5.0,9.0,4.0,AV,UpDown,UpDown,mismatch,L2_RU.png,0.0,1995.0
1144,5,A,1,association,BuildUP,1,5.0,1.0,19.0,female,right,5.0,9.0,5.0,AV,LeftRight,diffLettre,mismatch,L1_LU.png,1.0,1368.0
1145,5,A,1,association,BuildUP,1,5.0,1.0,19.0,female,right,5.0,9.0,6.0,AV,control,match,match,L4_RU.png,1.0,959.0
1146,5,A,1,association,BuildUP,1,5.0,1.0,19.0,female,right,5.0,9.0,7.0,AV,control,match,match,L3_LU.png,1.0,700.0
1147,5,A,1,association,BuildUP,1,5.0,1.0,19.0,female,right,5.0,9.0,8.0,AV,UpDown,match,match,L2_RU.png,1.0,1111.0
1148,5,A,1,association,BuildUP,1,5.0,1.0,19.0,female,right,5.0,9.0,9.0,AV,LeftRight,match,match,L1_RU.png,1.0,879.0
1149,5,A,1,association,BuildUP,1,5.0,1.0,19.0,female,right,5.0,9.0,10.0,AV,new,miroir,mismatch,L2_RD.png,0.0,1040.0
1150,5,A,1,association,BuildUP,1,5.0,1.0,19.0,female,right,5.0,9.0,11.0,AV,new,miroir,mismatch,L4_RU.png,1.0,832.0
1151,5,A,1,association,BuildUP,1,5.0,1.0,19.0,female,right,5.0,9.0,12.0,AV,UpDown,match,match,L2_RD.png,1.0,983.0
1152,5,A,1,association,BuildUP,1,5.0,1.0,19.0,female,right,5.0,10.0,1.0,AV,control,match,match,L3_LU.png,1.0,745.0
1153,5,A,1,association,BuildUP,1,5.0,1.0,19.0,female,right,5.0,10.0,2.0,AV,control,match,match,L4_RU.png,1.0,908.0
1154,5,A,1,association,BuildUP,1,5.0,1.0,19.0,female,right,5.0,10.0,3.0,AV,UpDown,match,match,L2_RD.png,1.0,1403.0
1155,5,A,1,association,BuildUP,1,5.0,1.0,19.0,female,right,5.0,10.0,4.0,AV,UpDown,match,match,L2_RU.png,1.0,957.0
1156,5,A,1,association,BuildUP,1,5.0,1.0,19.0,female,right,5.0,10.0,5.0,AV,LeftRight,match,match,L1_LU.png,1.0,827.0
1157,5,A,1,association,BuildUP,1,5.0,1.0,19.0,female,right,5.0,10.0,6.0,AV,LeftRight,match,match,L1_RU.png,1.0,742.0
1158,5,A,1,association,BuildUP,1,5.0,1.0,19.0,female,right,5.0,10.0,7.0,AV,new,UpDown,mismatch,L1_RU.png,1.0,677.0
1159,5,A,1,association,BuildUP,1,5.0,1.0,19.0,female,right,5.0,10.0,8.0,AV,control,diffLettre,mismatch,L2_RD.png,1.0,923.0
1160,5,A,1,association,BuildUP,1,5.0,1.0,19.0,female,right,5.0,10.0,9.0,AV,new,miroir,mismatch,L3_LU.png,1.0,863.0
1161,5,A,1,association,BuildUP,1,5.0,1.0,19.0,female,right,5.0,10.0,10.0,AV,control,diffLettre,mismatch,L2_RU.png,1.0,947.0
1162,5,A,1,association,BuildUP,1,5.0,1.0,19.0,female,right,5.0,10.0,11.0,AV,new,UpDown,mismatch,L1_LU.png,1.0,893.0
1163,5,A,1,association,BuildUP,1,5.0,1.0,19.0,female,right,5.0,10.0,12.0,AV,new,miroir,mismatch,L4_RU.png,1.0,994.0
1164,5,A,1,association,BuildUP,1,5.0,1.0,19.0,female,right,5.0,11.0,1.0,AV,UpDown,diffLettre,mismatch,L4_RU.png,1.0,1062.0
1165,5,A,1,association,BuildUP,1,5.0,1.0,19.0,female,right,5.0,11.0,2.0,AV,UpDown,match,match,L2_RU.png,1.0,1151.0
1166,5,A,1,association,BuildUP,1,5.0,1.0,19.0,female,right,5.0,11.0,3.0,AV,UpDown,match,match,L2_RD.png,1.0,1198.0
1167,5,A,1,association,BuildUP,1,5.0,1.0,19.0,female,right,5.0,11.0,4.0,AV,control,match,match,L4_RU.png,1.0,987.0
1168,5,A,1,association,BuildUP,1,5.0,1.0,19.0,female,right,5.0,11.0,5.0,AV,LeftRight,match,match,L1_RU.png,1.0,905.0
1169,5,A,1,association,BuildUP,1,5.0,1.0,19.0,female,right,5.0,11.0,6.0,AV,LeftRight,miroir,mismatch,L1_RU.png,1.0,1071.0
1170,5,A,1,association,BuildUP,1,5.0,1.0,19.0,female,right,5.0,11.0,7.0,AV,new,miroir,mismatch,L2_RU.png,0.0,1424.0
1171,5,A,1,association,BuildUP,1,5.0,1.0,19.0,female,right,5.0,11.0,8.0,AV,new,UpDown,mismatch,L1_LU.png,1.0,803.0
1172,5,A,1,association,BuildUP,1,5.0,1.0,19.0,female,right,5.0,11.0,9.0,AV,new,UpDown,mismatch,L3_LU.png,1.0,808.0
1173,5,A,1,association,BuildUP,1,5.0,1.0,19.0,female,right,5.0,11.0,10.0,AV,control,match,match,L3_LU.png,1.0,792.0
1174,5,A,1,association,BuildUP,1,5.0,1.0,19.0,female,right,5.0,11.0,11.0,AV,control,diffLettre,mismatch,L2_RD.png,1.0,920.0
1175,5,A,1,association,BuildUP,1,5.0,1.0,19.0,female,right,5.0,11.0,12.0,AV,LeftRight,match,match,L1_LU.png,1.0,706.0
1825,19,C,1,association,LowCOG,3,19.0,1.0,19.0,female,right,1.0,7.0,1.0,AVWS,LeftRight,match,match,L9_RD.png,1.0,1081.0
1826,19,C,1,association,LowCOG,3,19.0,1.0,19.0,female,right,1.0,7.0,2.0,AVWS,UpDown,UpDown,mismatch,L10_RU.png,1.0,1091.0
1827,19,C,1,association,LowCOG,3,19.0,1.0,19.0,female,right,1.0,7.0,3.0,AVWS,LeftRight,miroir,mismatch,L9_RD.png,1.0,1030.0
1828,19,C,1,association,LowCOG,3,19.0,1.0,19.0,female,right,1.0,7.0,4.0,AVWS,LeftRight,miroir,mismatch,L9_LD.png,1.0,1132.0
1829,19,C,1,association,LowCOG,3,19.0,1.0,19.0,female,right,1.0,7.0,5.0,AVWS,UpDown,match,match,L10_RU.png,0.0,694.0
1830,19,C,1,association,LowCOG,3,19.0,1.0,19.0,female,right,1.0,7.0,6.0,AVWS,LeftRight,match,match,L9_LD.png,1.0,1616.0
1831,19,C,1,association,LowCOG,3,19.0,1.0,19.0,female,right,1.0,7.0,7.0,AVWS,control,match,match,L12_LD.png,1.0,798.0
1832,19,C,1,association,LowCOG,3,19.0,1.0,19.0,female,right,1.0,7.0,8.0,AVWS,UpDown,UpDown,mismatch,L10_RD.png,0.0,865.0
1833,19,C,1,association,LowCOG,3,19.0,1.0,19.0,female,right,1.0,7.0,9.0,AVWS,control,diffLettre,mismatch,L11_RD.png,1.0,1160.0
1834,19,C,1,association,LowCOG,3,19.0,1.0,19.0,female,right,1.0,7.0,10.0,AVWS,control,match,match,L11_RD.png,1.0,742.0
1835,19,C,1,association,LowCOG,3,19.0,1.0,19.0,female,right,1.0,7.0,11.0,AVWS,control,diffLettre,mismatch,L12_LD.png,1.0,733.0
1836,19,C,1,association,LowCOG,3,19.0,1.0,19.0,female,right,1.0,7.0,12.0,AVWS,UpDown,match,match,L10_RD.png,1.0,1090.0
1837,19,C,1,association,LowCOG,3,19.0,1.0,19.0,female,right,1.0,8.0,1.0,AVWS,UpDown,match,match,L10_RU.png,1.0,809.0
1838,19,C,1,association,LowCOG,3,19.0,1.0,19.0,female,right,1.0,8.0,2.0,AVWS,new,miroir,mismatch,L12_LD.png,1.0,713.0
1839,19,C,1,association,LowCOG,3,19.0,1.0,19.0,female,right,1.0,8.0,3.0,AVWS,new,diffLettre,mismatch,L9_LD.png,1.0,668.0
1840,19,C,1,association,LowCOG,3,19.0,1.0,19.0,female,right,1.0,8.0,4.0,AVWS,new,UpDown,mismatch,L9_RD.png,1.0,738.0
1841,19,C,1,association,LowCOG,3,19.0,1.0,19.0,female,right,1.0,8.0,5.0,AVWS,UpDown,diffLettre,mismatch,L11_RD.png,1.0,1083.0
1842,19,C,1,association,LowCOG,3,19.0,1.0,19.0,female,right,1.0,8.0,6.0,AVWS,UpDown,match,match,L10_RD.png,1.0,1038.0
1843,19,C,1,association,LowCOG,3,19.0,1.0,19.0,female,right,1.0,8.0,7.0,AVWS,UpDown,UpDown,mismatch,L10_RD.png,1.0,679.0
1844,19,C,1,association,LowCOG,3,19.0,1.0,19.0,female,right,1.0,8.0,8.0,AVWS,LeftRight,match,match,L9_RD.png,1.0,975.0
1845,19,C,1,association,LowCOG,3,19.0,1.0,19.0,female,right,1.0,8.0,9.0,AVWS,control,match,match,L12_LD.png,1.0,720.0
1846,19,C,1,association,LowCOG,3,19.0,1.0,19.0,female,right,1.0,8.0,10.0,AVWS,control,match,match,L11_RD.png,1.0,712.0
1847,19,C,1,association,LowCOG,3,19.0,1.0,19.0,female,right,1.0,8.0,11.0,AVWS,new,miroir,mismatch,L10_RU.png,1.0,610.0
1848,19,C,1,association,LowCOG,3,19.0,1.0,19.0,female,right,1.0,8.0,12.0,AVWS,LeftRight,match,match,L9_LD.png,1.0,797.0
1849,19,C,1,association,LowCOG,3,19.0,1.0,19.0,female,right,1.0,9.0,1.0,AVWS,UpDown,match,match,L10_RU.png,1.0,800.0
1850,19,C,1,association,LowCOG,3,19.0,1.0,19.0,female,right,1.0,9.0,2.0,AVWS,LeftRight,match,match,L9_RD.png,1.0,1643.0
1851,19,C,1,association,LowCOG,3,19.0,1.0,19.0,female,right,1.0,9.0,3.0,AVWS,new,diffLettre,mismatch,L9_RD.png,1.0,714.0
1852,19,C,1,association,LowCOG,3,19.0,1.0,19.0,female,right,1.0,9.0,4.0,AVWS,new,miroir,mismatch,L10_RU.png,1.0,477.0
1853,19,C,1,association,LowCOG,3,19.0,1.0,19.0,female,right,1.0,9.0,5.0,AVWS,new,UpDown,mismatch,L12_LD.png,1.0,544.0
1854,19,C,1,association,LowCOG,3,19.0,1.0,19.0,female,right,1.0,9.0,6.0,AVWS,LeftRight,match,match,L9_LD.png,1.0,547.0
1855,19,C,1,association,LowCOG,3,19.0,1.0,19.0,female,right,1.0,9.0,7.0,AVWS,new,miroir,mismatch,L10_RD.png,1.0,484.0
1856,19,C,1,association,LowCOG,3,19.0,1.0,19.0,female,right,1.0,9.0,8.0,AVWS,new,UpDown,mismatch,L11_RD.png,1.0,799.0
1857,19,C,1,association,LowCOG,3,19.0,1.0,19.0,female,right,1.0,9.0,9.0,AVWS,control,match,match,L11_RD.png,1.0,773.0
1858,19,C,1,association,LowCOG,3,19.0,1.0,19.0,female,right,1.0,9.0,10.0,AVWS,control,match,match,L12_LD.png,1.0,764.0
1859,19,C,1,association,LowCOG,3,19.0,1.0,19.0,female,right,1.0,9.0,11.0,AVWS,UpDown,match,match,L10_RD.png,1.0,690.0
1860,19,C,1,association,LowCOG,3,19.0,1.0,19.0,female,right,1.0,9.0,12.0,AVWS,new,diffLettre,mismatch,L9_LD.png,1.0,498.0
1861,19,C,1,association,LowCOG,3,19.0,1.0,19.0,female,right,1.0,10.0,1.0,AVWS,control,match,match,L11_RD.png,1.0,689.0
1862,19,C,1,association,LowCOG,3,19.0,1.0,19.0,female,right,1.0,10.0,2.0,AVWS,new,UpDown,mismatch,L9_RD.png,1.0,905.0
1863,19,C,1,association,LowCOG,3,19.0,1.0,19.0,female,right,1.0,10.0,3.0,AVWS,new,miroir,mismatch,L12_LD.png,1.0,690.0
1864,19,C,1,association,LowCOG,3,19.0,1.0,19.0,female,right,1.0,10.0,4.0,AVWS,new,UpDown,mismatch,L9_LD.png,1.0,580.0
1865,19,C,1,association,LowCOG,3,19.0,1.0,19.0,female,right,1.0,10.0,5.0,AVWS,UpDown,match,match,L10_RU.png,1.0,677.0
1866,19,C,1,association,LowCOG,3,19.0,1.0,19.0,female,right,1.0,10.0,6.0,AVWS,LeftRight,diffLettre,mismatch,L10_RD.png,1.0,741.0
1867,19,C,1,association,LowCOG,3,19.0,1.0,19.0,female,right,1.0,10.0,7.0,AVWS,control,diffLettre,mismatch,L10_RU.png,1.0,862.0
1868,19,C,1,association,LowCOG,3,19.0,1.0,19.0,female,right,1.0,10.0,8.0,AVWS,control,match,match,L12_LD.png,1.0,1035.0
1869,19,C,1,association,LowCOG,3,19.0,1.0,19.0,female,right,1.0,10.0,9.0,AVWS,new,miroir,mismatch,L11_RD.png,1.0,628.0
1870,19,C,1,association,LowCOG,3,19.0,1.0,19.0,female,right,1.0,10.0,10.0,AVWS,LeftRight,match,match,L9_RD.png,1.0,1112.0
1871,19,C,1,association,LowCOG,3,19.0,1.0,19.0,female,right,1.0,10.0,11.0,AVWS,UpDown,match,match,L10_RD.png,1.0,796.0
1872,19,C,1,association,LowCOG,3,19.0,1.0,19.0,female,right,1.0,10.0,12.0,AVWS,LeftRight,match,match,L9_LD.png,1.0,509.0
1873,19,C,1,association,LowCOG,3,19.0,1.0,19.0,female,right,1.0,11.0,1.0,AVWS,new,UpDown,mismatch,L9_LD.png,1.0,552.0
1874,19,C,1,association,LowCOG,3,19.0,1.0,19.0,female,right,1.0,11.0,2.0,AVWS,LeftRight,miroir,mismatch,L9_RD.png,1.0,753.0
1875,19,C,1,association,LowCOG,3,19.0,1.0,19.0,female,right,1.0,11.0,3.0,AVWS,new,UpDown,mismatch,L11_RD.png,1.0,549.0
1876,19,C,1,association,LowCOG,3,19.0,1.0,19.0,female,right,1.0,11.0,4.0,AVWS,LeftRight,match,match,L9_LD.png,1.0,615.0
1877,19,C,1,association,LowCOG,3,19.0,1.0,19.0,female,right,1.0,11.0,5.0,AVWS,UpDown,match,match,L10_RU.png,1.0,615.0
1878,19,C,1,association,LowCOG,3,19.0,1.0,19.0,female,right,1.0,11.0,6.0,AVWS,new,diffLettre,mismatch,L10_RU.png,1.0,567.0
1879,19,C,1,association,LowCOG,3,19.0,1.0,19.0,female,right,1.0,11.0,7.0,AVWS,control,match,match,L12_LD.png,1.0,622.0
1880,19,C,1,association,LowCOG,3,19.0,1.0,19.0,female,right,1.0,11.0,8.0,AVWS,control,match,match,L11_RD.png,1.0,490.0
1881,19,C,1,association,LowCOG,3,19.0,1.0,19.0,female,right,1.0,11.0,9.0,AVWS,new,miroir,mismatch,L10_RD.png,1.0,796.0
1882,19,C,1,association,LowCOG,3,19.0,1.0,19.0,female,right,1.0,11.0,10.0,AVWS,UpDown,diffLettre,mismatch,L12_LD.png,1.0,843.0
1883,19,C,1,association,LowCOG,3,19.0,1.0,19.0,female,right,1.0,11.0,11.0,AVWS,LeftRight,match,match,L9_RD.png,1.0,909.0
1884,19,C,1,association,LowCOG,3,19.0,1.0,19.0,female,right,1.0,11.0,12.0,AVWS,UpDown,match,match,L10_RD.png,1.0,577.0
1891,19,B,1,association,BuildUP,2,19.0,1.0,19.0,female,right,1.0,7.0,1.0,AVW,control,match,match,L8_RD.png,1.0,862.0
1892,19,B,1,association,BuildUP,2,19.0,1.0,19.0,female,right,1.0,7.0,2.0,AVW,control,diffLettre,mismatch,L8_RD.png,1.0,576.0
1893,19,B,1,association,BuildUP,2,19.0,1.0,19.0,female,right,1.0,7.0,3.0,AVW,LeftRight,miroir,mismatch,L5_RD.png,1.0,1025.0
1894,19,B,1,association,BuildUP,2,19.0,1.0,19.0,female,right,1.0,7.0,4.0,AVW,UpDown,match,match,L6_LU.png,1.0,627.0
1895,19,B,1,association,BuildUP,2,19.0,1.0,19.0,female,right,1.0,7.0,5.0,AVW,LeftRight,match,match,L5_LD.png,1.0,782.0
1896,19,B,1,association,BuildUP,2,19.0,1.0,19.0,female,right,1.0,7.0,6.0,AVW,control,match,match,L7_LD.png,1.0,801.0
1897,19,B,1,association,BuildUP,2,19.0,1.0,19.0,female,right,1.0,7.0,7.0,AVW,LeftRight,match,match,L5_RD.png,1.0,701.0
1898,19,B,1,association,BuildUP,2,19.0,1.0,19.0,female,right,1.0,7.0,8.0,AVW,control,diffLettre,mismatch,L7_LD.png,1.0,699.0
1899,19,B,1,association,BuildUP,2,19.0,1.0,19.0,female,right,1.0,7.0,9.0,AVW,UpDown,UpDown,mismatch,L6_LU.png,1.0,664.0
1900,19,B,1,association,BuildUP,2,19.0,1.0,19.0,female,right,1.0,7.0,10.0,AVW,UpDown,match,match,L6_LD.png,1.0,688.0
1901,19,B,1,association,BuildUP,2,19.0,1.0,19.0,female,right,1.0,7.0,11.0,AVW,LeftRight,miroir,mismatch,L5_LD.png,1.0,704.0
1902,19,B,1,association,BuildUP,2,19.0,1.0,19.0,female,right,1.0,7.0,12.0,AVW,UpDown,UpDown,mismatch,L6_LD.png,1.0,831.0
1903,19,B,1,association,BuildUP,2,19.0,1.0,19.0,female,right,1.0,8.0,1.0,AVW,new,diffLettre,mismatch,L7_LD.png,1.0,562.0
1904,19,B,1,association,BuildUP,2,19.0,1.0,19.0,female,right,1.0,8.0,2.0,AVW,UpDown,match,match,L6_LD.png,1.0,834.0
1905,19,B,1,association,BuildUP,2,19.0,1.0,19.0,female,right,1.0,8.0,3.0,AVW,UpDown,match,match,L6_LU.png,1.0,636.0
1906,19,B,1,association,BuildUP,2,19.0,1.0,19.0,female,right,1.0,8.0,4.0,AVW,LeftRight,match,match,L5_RD.png,1.0,507.0
1907,19,B,1,association,BuildUP,2,19.0,1.0,19.0,female,right,1.0,8.0,5.0,AVW,control,match,match,L8_RD.png,1.0,509.0
1908,19,B,1,association,BuildUP,2,19.0,1.0,19.0,female,right,1.0,8.0,6.0,AVW,control,match,match,L7_LD.png,1.0,542.0
1909,19,B,1,association,BuildUP,2,19.0,1.0,19.0,female,right,1.0,8.0,7.0,AVW,new,miroir,mismatch,L8_RD.png,1.0,381.0
1910,19,B,1,association,BuildUP,2,19.0,1.0,19.0,female,right,1.0,8.0,8.0,AVW,new,miroir,mismatch,L6_LD.png,1.0,360.0
1911,19,B,1,association,BuildUP,2,19.0,1.0,19.0,female,right,1.0,8.0,9.0,AVW,LeftRight,match,match,L5_LD.png,1.0,448.0
1912,19,B,1,association,BuildUP,2,19.0,1.0,19.0,female,right,1.0,8.0,10.0,AVW,UpDown,UpDown,mismatch,L6_LU.png,1.0,456.0
1913,19,B,1,association,BuildUP,2,19.0,1.0,19.0,female,right,1.0,8.0,11.0,AVW,new,UpDown,mismatch,L5_RD.png,1.0,386.0
1914,19,B,1,association,BuildUP,2,19.0,1.0,19.0,female,right,1.0,8.0,12.0,AVW,LeftRight,diffLettre,mismatch,L5_LD.png,1.0,556.0
1915,19,B,1,association,BuildUP,2,19.0,1.0,19.0,female,right,1.0,9.0,1.0,AVW,UpDown,diffLettre,mismatch,L5_RD.png,1.0,667.0
1916,19,B,1,association,BuildUP,2,19.0,1.0,19.0,female,right,1.0,9.0,2.0,AVW,control,match,match,L7_LD.png,1.0,720.0
1917,19,B,1,association,BuildUP,2,19.0,1.0,19.0,female,right,1.0,9.0,3.0,AVW,LeftRight,match,match,L5_RD.png,1.0,684.0
1918,19,B,1,association,BuildUP,2,19.0,1.0,19.0,female,right,1.0,9.0,4.0,AVW,control,match,match,L8_RD.png,1.0,538.0
1919,19,B,1,association,BuildUP,2,19.0,1.0,19.0,female,right,1.0,9.0,5.0,AVW,new,UpDown,mismatch,L7_LD.png,1.0,595.0
1920,19,B,1,association,BuildUP,2,19.0,1.0,19.0,female,right,1.0,9.0,6.0,AVW,LeftRight,match,match,L5_LD.png,1.0,642.0
1921,19,B,1,association,BuildUP,2,19.0,1.0,19.0,female,right,1.0,9.0,7.0,AVW,UpDown,match,match,L6_LD.png,1.0,610.0
1922,19,B,1,association,BuildUP,2,19.0,1.0,19.0,female,right,1.0,9.0,8.0,AVW,UpDown,match,match,L6_LU.png,1.0,530.0
1923,19,B,1,association,BuildUP,2,19.0,1.0,19.0,female,right,1.0,9.0,9.0,AVW,new,miroir,mismatch,L6_LD.png,1.0,541.0
1924,19,B,1,association,BuildUP,2,19.0,1.0,19.0,female,right,1.0,9.0,10.0,AVW,new,miroir,mismatch,L6_LU.png,1.0,565.0
1925,19,B,1,association,BuildUP,2,19.0,1.0,19.0,female,right,1.0,9.0,11.0,AVW,new,UpDown,mismatch,L8_RD.png,1.0,507.0
1926,19,B,1,association,BuildUP,2,19.0,1.0,19.0,female,right,1.0,9.0,12.0,AVW,new,diffLettre,mismatch,L5_LD.png,1.0,541.0
1927,19,B,1,association,BuildUP,2,19.0,1.0,19.0,female,right,1.0,10.0,1.0,AVW,new,UpDown,mismatch,L5_RD.png,1.0,322.0
1928,19,B,1,association,BuildUP,2,19.0,1.0,19.0,female,right,1.0,10.0,2.0,AVW,new,UpDown,mismatch,L5_LD.png,1.0,364.0
1929,19,B,1,association,BuildUP,2,19.0,1.0,19.0,female,right,1.0,10.0,3.0,AVW,control,match,match,L8_RD.png,1.0,562.0
1930,19,B,1,association,BuildUP,2,19.0,1.0,19.0,female,right,1.0,10.0,4.0,AVW,LeftRight,match,match,L5_RD.png,1.0,645.0
1931,19,B,1,association,BuildUP,2,19.0,1.0,19.0,female,right,1.0,10.0,5.0,AVW,UpDown,match,match,L6_LU.png,1.0,678.0
1932,19,B,1,association,BuildUP,2,19.0,1.0,19.0,female,right,1.0,10.0,6.0,AVW,control,match,match,L7_LD.png,1.0,515.0
1933,19,B,1,association,BuildUP,2,19.0,1.0,19.0,female,right,1.0,10.0,7.0,AVW,LeftRight,match,match,L5_LD.png,1.0,397.0
1934,19,B,1,association,BuildUP,2,19.0,1.0,19.0,female,right,1.0,10.0,8.0,AVW,new,diffLettre,mismatch,L6_LU.png,1.0,412.0
1935,19,B,1,association,BuildUP,2,19.0,1.0,19.0,female,right,1.0,10.0,9.0,AVW,new,miroir,mismatch,L7_LD.png,1.0,486.0
1936,19,B,1,association,BuildUP,2,19.0,1.0,19.0,female,right,1.0,10.0,10.0,AVW,new,miroir,mismatch,L8_RD.png,1.0,410.0
1937,19,B,1,association,BuildUP,2,19.0,1.0,19.0,female,right,1.0,10.0,11.0,AVW,control,diffLettre,mismatch,L6_LD.png,1.0,643.0
1938,19,B,1,association,BuildUP,2,19.0,1.0,19.0,female,right,1.0,10.0,12.0,AVW,UpDown,match,match,L6_LD.png,1.0,845.0
1939,19,B,1,association,BuildUP,2,19.0,1.0,19.0,female,right,1.0,11.0,1.0,AVW,control,match,match,L7_LD.png,1.0,680.0
1940,19,B,1,association,BuildUP,2,19.0,1.0,19.0,female,right,1.0,11.0,2.0,AVW,LeftRight,match,match,L5_RD.png,1.0,450.0
1941,19,B,1,association,BuildUP,2,19.0,1.0,19.0,female,right,1.0,11.0,3.0,AVW,new,UpDown,mismatch,L7_LD.png,1.0,506.0
1942,19,B,1,association,BuildUP,2,19.0,1.0,19.0,female,right,1.0,11.0,4.0,AVW,new,miroir,mismatch,L6_LU.png,1.0,342.0
1943,19,B,1,association,BuildUP,2,19.0,1.0,19.0,female,right,1.0,11.0,5.0,AVW,control,UpDown,mismatch,L5_LD.png,1.0,336.0
1944,19,B,1,association,BuildUP,2,19.0,1.0,19.0,female,right,1.0,11.0,6.0,AVW,LeftRight,match,match,L5_LD.png,1.0,681.0
1945,19,B,1,association,BuildUP,2,19.0,1.0,19.0,female,right,1.0,11.0,7.0,AVW,LeftRight,miroir,mismatch,L5_RD.png,1.0,442.0
1946,19,B,1,association,BuildUP,2,19.0,1.0,19.0,female,right,1.0,11.0,8.0,AVW,new,diffLettre,mismatch,L6_LD.png,1.0,470.0
1947,19,B,1,association,BuildUP,2,19.0,1.0,19.0,female,right,1.0,11.0,9.0,AVW,UpDown,match,match,L6_LU.png,1.0,475.0
1948,19,B,1,association,BuildUP,2,19.0,1.0,19.0,female,right,1.0,11.0,10.0,AVW,UpDown,match,match,L6_LD.png,1.0,485.0
1949,19,B,1,association,BuildUP,2,19.0,1.0,19.0,female,right,1.0,11.0,11.0,AVW,UpDown,diffLettre,mismatch,L8_RD.png,1.0,496.0
1950,19,B,1,association,BuildUP,2,19.0,1.0,19.0,female,right,1.0,11.0,12.0,AVW,control,match,match,L8_RD.png,1.0,378.0
2216,19,B,2,association,BuildUP,2,19.0,2.0,19.0,female,right,1.0,7.0,1.0,AVW,UpDown,match,match,L6_LU.png,1.0,1103.0
2217,19,B,2,association,BuildUP,2,19.0,2.0,19.0,female,right,1.0,7.0,2.0,AVW,control,diffLettre,mismatch,L7_LD.png,1.0,694.0
2218,19,B,2,association,BuildUP,2,19.0,2.0,19.0,female,right,1.0,7.0,3.0,AVW,LeftRight,match,match,L5_RD.png,0.0,0.0
2219,19,B,2,association,BuildUP,2,19.0,2.0,19.0,female,right,1.0,7.0,4.0,AVW,control,diffLettre,mismatch,L8_RD.png,1.0,1174.0
2220,19,B,2,association,BuildUP,2,19.0,2.0,19.0,female,right,1.0,7.0,5.0,AVW,UpDown,UpDown,mismatch,L6_LD.png,1.0,1072.0
2221,19,B,2,association,BuildUP,2,19.0,2.0,19.0,female,right,1.0,7.0,6.0,AVW,LeftRight,match,match,L5_LD.png,1.0,1050.0
2222,19,B,2,association,BuildUP,2,19.0,2.0,19.0,female,right,1.0,7.0,7.0,AVW,control,match,match,L8_RD.png,1.0,741.0
2223,19,B,2,association,BuildUP,2,19.0,2.0,19.0,female,right,1.0,7.0,8.0,AVW,control,match,match,L7_LD.png,1.0,703.0
2224,19,B,2,association,BuildUP,2,19.0,2.0,19.0,female,right,1.0,7.0,9.0,AVW,LeftRight,miroir,mismatch,L5_RD.png,1.0,760.0
2225,19,B,2,association,BuildUP,2,19.0,2.0,19.0,female,right,1.0,7.0,10.0,AVW,UpDown,UpDown,mismatch,L6_LU.png,0.0,525.0
2226,19,B,2,association,BuildUP,2,19.0,2.0,19.0,female,right,1.0,7.0,11.0,AVW,LeftRight,miroir,mismatch,L5_LD.png,1.0,2031.0
2227,19,B,2,association,BuildUP,2,19.0,2.0,19.0,female,right,1.0,7.0,12.0,AVW,UpDown,match,match,L6_LD.png,1.0,778.0
2228,19,B,2,association,BuildUP,2,19.0,2.0,19.0,female,right,1.0,8.0,1.0,AVW,control,match,match,L7_LD.png,1.0,512.0
2229,19,B,2,association,BuildUP,2,19.0,2.0,19.0,female,right,1.0,8.0,2.0,AVW,LeftRight,diffLettre,mismatch,L5_LD.png,1.0,1332.0
2230,19,B,2,association,BuildUP,2,19.0,2.0,19.0,female,right,1.0,8.0,3.0,AVW,new,UpDown,mismatch,L5_RD.png,1.0,737.0
2231,19,B,2,association,BuildUP,2,19.0,2.0,19.0,female,right,1.0,8.0,4.0,AVW,new,diffLettre,mismatch,L7_LD.png,1.0,458.0
2232,19,B,2,association,BuildUP,2,19.0,2.0,19.0,female,right,1.0,8.0,5.0,AVW,LeftRight,match,match,L5_RD.png,1.0,466.0
2233,19,B,2,association,BuildUP,2,19.0,2.0,19.0,female,right,1.0,8.0,6.0,AVW,LeftRight,match,match,L5_LD.png,1.0,446.0
2234,19,B,2,association,BuildUP,2,19.0,2.0,19.0,female,right,1.0,8.0,7.0,AVW,control,match,match,L8_RD.png,1.0,432.0
2235,19,B,2,association,BuildUP,2,19.0,2.0,19.0,female,right,1.0,8.0,8.0,AVW,new,miroir,mismatch,L8_RD.png,1.0,447.0
2236,19,B,2,association,BuildUP,2,19.0,2.0,19.0,female,right,1.0,8.0,9.0,AVW,UpDown,match,match,L6_LD.png,1.0,583.0
2237,19,B,2,association,BuildUP,2,19.0,2.0,19.0,female,right,1.0,8.0,10.0,AVW,new,miroir,mismatch,L6_LD.png,1.0,325.0
