,subject,set,day,task,trainingtype,order,Subject2,Session,Group,Block,BlockList,trial,TrialList1,TrialList1.Cycle,TrialList1.Sample,Bloc,TypeLetter1,Training,InputVis1,accuracy,RT
396,2,B,2,visualrecognition,AV,1,2.0,2.0,2.0,1.0,1.0,1.0,8.0,1.0,1.0,1.0,UpDown,AV,L5_RU.png,1.0,488.0
397,2,B,2,visualrecognition,AV,1,2.0,2.0,2.0,1.0,1.0,2.0,27.0,1.0,2.0,1.0,New,AV,L8_LU.png,1.0,359.0
398,2,B,2,visualrecognition,AV,1,2.0,2.0,2.0,1.0,1.0,3.0,9.0,1.0,3.0,1.0,New,AV,L7_LU.png,1.0,446.0
399,2,B,2,visualrecognition,AV,1,2.0,2.0,2.0,1.0,1.0,4.0,10.0,1.0,4.0,1.0,New,AV,L7_LU_big.png,1.0,324.0
400,2,B,2,visualrecognition,AV,1,2.0,2.0,2.0,1.0,1.0,5.0,4.0,1.0,5.0,1.0,UpDown,AV,L6_LU.png,0.0,361.0
401,2,B,2,visualrecognition,AV,1,2.0,2.0,2.0,1.0,1.0,6.0,22.0,1.0,6.0,1.0,New,AV,L6_RU_big.png,1.0,757.0
402,2,B,2,visualrecognition,AV,1,2.0,2.0,2.0,1.0,1.0,7.0,29.0,1.0,7.0,1.0,New,AV,L8_RU.png,1.0,492.0
403,2,B,2,visualrecognition,AV,1,2.0,2.0,2.0,1.0,1.0,8.0,32.0,1.0,8.0,1.0,New,AV,L8_RU_big.png,1.0,485.0
404,2,B,2,visualrecognition,AV,1,2.0,2.0,2.0,1.0,1.0,9.0,25.0,1.0,9.0,1.0,New,AV,L7_RU_big.png,1.0,533.0
405,2,B,2,visualrecognition,AV,1,2.0,2.0,2.0,1.0,1.0,10.0,28.0,1.0,10.0,1.0,New,AV,L8_RD_big.png,0.0,389.0
406,2,B,2,visualrecognition,AV,1,2.0,2.0,2.0,1.0,1.0,11.0,5.0,1.0,11.0,1.0,control,AV,L7_LD.png,1.0,551.0
407,2,B,2,visualrecognition,AV,1,2.0,2.0,2.0,1.0,1.0,12.0,20.0,1.0,12.0,1.0,New,AV,L6_RD_big.png,1.0,552.0
408,2,B,2,visualrecognition,AV,1,2.0,2.0,2.0,1.0,1.0,13.0,17.0,1.0,13.0,1.0,UpDown,AV,L6_LD_big.png,1.0,754.0
409,2,B,2,visualrecognition,AV,1,2.0,2.0,2.0,1.0,1.0,14.0,14.0,1.0,14.0,1.0,LeftRight,AV,L5_RD_big.png,1.0,618.0
410,2,B,2,visualrecognition,AV,1,2.0,2.0,2.0,1.0,1.0,15.0,24.0,1.0,15.0,1.0,New,AV,L7_RU.png,1.0,596.0
411,2,B,2,visualrecognition,AV,1,2.0,2.0,2.0,1.0,1.0,16.0,11.0,1.0,16.0,1.0,New,AV,L7_RD.png,0.0,617.0
412,2,B,2,visualrecognition,AV,1,2.0,2.0,2.0,1.0,1.0,17.0,2.0,1.0,17.0,1.0,LeftRight,AV,L5_LD.png,1.0,626.0
413,2,B,2,visualrecognition,AV,1,2.0,2.0,2.0,1.0,1.0,18.0,26.0,1.0,18.0,1.0,New,AV,L8_LD.png,1.0,571.0
414,2,B,2,visualrecognition,AV,1,2.0,2.0,2.0,1.0,1.0,19.0,23.0,1.0,19.0,1.0,control,AV,L7_LD_big.png,1.0,516.0
415,2,B,2,visualrecognition,AV,1,2.0,2.0,2.0,1.0,1.0,20.0,6.0,1.0,20.0,1.0,control,AV,L8_RD.png,1.0,698.0
416,2,B,2,visualrecognition,AV,1,2.0,2.0,2.0,1.0,1.0,21.0,13.0,1.0,21.0,1.0,LeftRight,AV,L5_LD_big.png,1.0,563.0
417,2,B,2,visualrecognition,AV,1,2.0,2.0,2.0,1.0,1.0,22.0,12.0,1.0,22.0,1.0,New,AV,L7_RD_big.png,1.0,626.0
418,2,B,2,visualrecognition,AV,1,2.0,2.0,2.0,1.0,1.0,23.0,21.0,1.0,23.0,1.0,New,AV,L6_RU.png,1.0,749.0
419,2,B,2,visualrecognition,AV,1,2.0,2.0,2.0,1.0,1.0,24.0,1.0,1.0,24.0,1.0,LeftRight,AV,L5_RD.png,1.0,528.0
420,2,B,2,visualrecognition,AV,1,2.0,2.0,2.0,1.0,1.0,25.0,30.0,1.0,25.0,1.0,New,AV,L8_LD_big.png,1.0,504.0
421,2,B,2,visualrecognition,AV,1,2.0,2.0,2.0,1.0,1.0,26.0,18.0,1.0,26.0,1.0,UpDown,AV,L6_LU_big.png,1.0,681.0
422,2,B,2,visualrecognition,AV,1,2.0,2.0,2.0,1.0,1.0,27.0,15.0,1.0,27.0,1.0,New,AV,L5_LU_big.png,1.0,574.0
423,2,B,2,visualrecognition,AV,1,2.0,2.0,2.0,1.0,1.0,28.0,3.0,1.0,28.0,1.0,UpDown,AV,L6_LD.png,1.0,780.0
424,2,B,2,visualrecognition,AV,1,2.0,2.0,2.0,1.0,1.0,29.0,16.0,1.0,29.0,1.0,New,AV,L5_RU_big.png,1.0,565.0
425,2,B,2,visualrecognition,AV,1,2.0,2.0,2.0,1.0,1.0,30.0,31.0,1.0,30.0,1.0,New,AV,L8_LU_big.png,1.0,511.0
426,2,B,2,visualrecognition,AV,1,2.0,2.0,2.0,1.0,1.0,31.0,7.0,1.0,31.0,1.0,UpDown,AV,L5_LU.png,1.0,602.0
427,2,B,2,visualrecognition,AV,1,2.0,2.0,2.0,1.0,1.0,32.0,19.0,1.0,32.0,1.0,New,AV,L6_RD.png,1.0,555.0
428,2,B,2,visualrecognition,AV,1,2.0,2.0,2.0,1.0,1.0,33.0,4.0,2.0,33.0,1.0,UpDown,AV,L6_LU.png,1.0,575.0
429,2,B,2,visualrecognition,AV,1,2.0,2.0,2.0,1.0,1.0,34.0,22.0,2.0,34.0,1.0,New,AV,L6_RU_big.png,1.0,543.0
430,2,B,2,visualrecognition,AV,1,2.0,2.0,2.0,1.0,1.0,35.0,25.0,2.0,35.0,1.0,New,AV,L7_RU_big.png,1.0,501.0
431,2,B,2,visualrecognition,AV,1,2.0,2.0,2.0,1.0,1.0,36.0,10.0,2.0,36.0,1.0,New,AV,L7_LU_big.png,1.0,391.0
432,2,B,2,visualrecognition,AV,1,2.0,2.0,2.0,1.0,1.0,37.0,28.0,2.0,37.0,1.0,New,AV,L8_RD_big.png,1.0,580.0
433,2,B,2,visualrecognition,AV,1,2.0,2.0,2.0,1.0,1.0,38.0,13.0,2.0,38.0,1.0,LeftRight,AV,L5_LD_big.png,1.0,617.0
434,2,B,2,visualrecognition,AV,1,2.0,2.0,2.0,1.0,1.0,39.0,2.0,2.0,39.0,1.0,LeftRight,AV,L5_LD.png,1.0,536.0
435,2,B,2,visualrecognition,AV,1,2.0,2.0,2.0,1.0,1.0,40.0,21.0,2.0,40.0,1.0,New,AV,L6_RU.png,1.0,500.0
436,2,B,2,visualrecognition,AV,1,2.0,2.0,2.0,1.0,1.0,41.0,12.0,2.0,41.0,1.0,New,AV,L7_RD_big.png,1.0,461.0
437,2,B,2,visualrecognition,AV,1,2.0,2.0,2.0,1.0,1.0,42.0,17.0,2.0,42.0,1.0,UpDown,AV,L6_LD_big.png,1.0,548.0
438,2,B,2,visualrecognition,AV,1,2.0,2.0,2.0,1.0,1.0,43.0,29.0,2.0,43.0,1.0,New,AV,L8_RU.png,1.0,493.0
439,2,B,2,visualrecognition,AV,1,2.0,2.0,2.0,1.0,1.0,44.0,30.0,2.0,44.0,1.0,New,AV,L8_LD_big.png,1.0,624.0
440,2,B,2,visualrecognition,AV,1,2.0,2.0,2.0,1.0,1.0,45.0,3.0,2.0,45.0,1.0,UpDown,AV,L6_LD.png,1.0,595.0
441,2,B,2,visualrecognition,AV,1,2.0,2.0,2.0,1.0,1.0,46.0,27.0,2.0,46.0,1.0,New,AV,L8_LU.png,1.0,565.0
442,2,B,2,visualrecognition,AV,1,2.0,2.0,2.0,1.0,1.0,47.0,6.0,2.0,47.0,1.0,control,AV,L8_RD.png,1.0,617.0
443,2,B,2,visualrecognition,AV,1,2.0,2.0,2.0,1.0,1.0,48.0,15.0,2.0,48.0,1.0,New,AV,L5_LU_big.png,1.0,533.0
444,2,B,2,visualrecognition,AV,1,2.0,2.0,2.0,1.0,1.0,49.0,5.0,2.0,49.0,1.0,control,AV,L7_LD.png,1.0,1206.0
445,2,B,2,visualrecognition,AV,1,2.0,2.0,2.0,1.0,1.0,50.0,14.0,2.0,50.0,1.0,LeftRight,AV,L5_RD_big.png,1.0,898.0
446,2,B,2,visualrecognition,AV,1,2.0,2.0,2.0,1.0,1.0,51.0,23.0,2.0,51.0,1.0,control,AV,L7_LD_big.png,1.0,596.0
447,2,B,2,visualrecognition,AV,1,2.0,2.0,2.0,1.0,1.0,52.0,8.0,2.0,52.0,1.0,UpDown,AV,L5_RU.png,1.0,556.0
448,2,B,2,visualrecognition,AV,1,2.0,2.0,2.0,1.0,1.0,53.0,31.0,2.0,53.0,1.0,New,AV,L8_LU_big.png,1.0,483.0
449,2,B,2,visualrecognition,AV,1,2.0,2.0,2.0,1.0,1.0,54.0,18.0,2.0,54.0,1.0,UpDown,AV,L6_LU_big.png,1.0,778.0
450,2,B,2,visualrecognition,AV,1,2.0,2.0,2.0,1.0,1.0,55.0,9.0,2.0,55.0,1.0,New,AV,L7_LU.png,1.0,496.0
451,2,B,2,visualrecognition,AV,1,2.0,2.0,2.0,1.0,1.0,56.0,16.0,2.0,56.0,1.0,New,AV,L5_RU_big.png,1.0,639.0
452,2,B,2,visualrecognition,AV,1,2.0,2.0,2.0,1.0,1.0,57.0,20.0,2.0,57.0,1.0,New,AV,L6_RD_big.png,1.0,576.0
453,2,B,2,visualrecognition,AV,1,2.0,2.0,2.0,1.0,1.0,58.0,7.0,2.0,58.0,1.0,UpDown,AV,L5_LU.png,1.0,538.0
454,2,B,2,visualrecognition,AV,1,2.0,2.0,2.0,1.0,1.0,59.0,26.0,2.0,59.0,1.0,New,AV,L8_LD.png,1.0,542.0
455,2,B,2,visualrecognition,AV,1,2.0,2.0,2.0,1.0,1.0,60.0,24.0,2.0,60.0,1.0,New,AV,L7_RU.png,1.0,459.0
456,2,B,2,visualrecognition,AV,1,2.0,2.0,2.0,1.0,1.0,61.0,19.0,2.0,61.0,1.0,New,AV,L6_RD.png,1.0,643.0
457,2,B,2,visualrecognition,AV,1,2.0,2.0,2.0,1.0,1.0,62.0,11.0,2.0,62.0,1.0,New,AV,L7_RD.png,1.0,584.0
458,2,B,2,visualrecognition,AV,1,2.0,2.0,2.0,1.0,1.0,63.0,1.0,2.0,63.0,1.0,LeftRight,AV,L5_RD.png,1.0,484.0
459,2,B,2,visualrecognition,AV,1,2.0,2.0,2.0,1.0,1.0,64.0,32.0,2.0,64.0,1.0,New,AV,L8_RU_big.png,1.0,521.0
460,2,C,2,visualrecognition,BuildUP,3,2.0,2.0,2.0,1.0,1.0,1.0,2.0,1.0,1.0,1.0,LeftRight,AVSW_LowCogLoad,L9_LD.png,1.0,650.0
461,2,C,2,visualrecognition,BuildUP,3,2.0,2.0,2.0,1.0,1.0,2.0,20.0,1.0,2.0,1.0,new,AVSW_LowCogLoad,L9_LU_big.png,1.0,378.0
462,2,C,2,visualrecognition,BuildUP,3,2.0,2.0,2.0,1.0,1.0,3.0,7.0,1.0,3.0,1.0,LeftRight,AVSW_LowCogLoad,L9_RD_big.png,0.0,450.0
463,2,C,2,visualrecognition,BuildUP,3,2.0,2.0,2.0,1.0,1.0,4.0,28.0,1.0,4.0,1.0,new,AVSW_LowCogLoad,L11_LU.png,1.0,576.0
464,2,C,2,visualrecognition,BuildUP,3,2.0,2.0,2.0,1.0,1.0,5.0,4.0,1.0,5.0,1.0,UpDown,AVSW_LowCogLoad,L10_RD.png,0.0,704.0
465,2,C,2,visualrecognition,BuildUP,3,2.0,2.0,2.0,1.0,1.0,6.0,1.0,1.0,6.0,1.0,LeftRight,AVSW_LowCogLoad,L9_RD.png,1.0,552.0
466,2,C,2,visualrecognition,BuildUP,3,2.0,2.0,2.0,1.0,1.0,7.0,26.0,1.0,7.0,1.0,new,AVSW_LowCogLoad,L10_LU.png,1.0,439.0
467,2,C,2,visualrecognition,BuildUP,3,2.0,2.0,2.0,1.0,1.0,8.0,16.0,1.0,8.0,1.0,new,AVSW_LowCogLoad,L10_LD_big.png,1.0,413.0
468,2,C,2,visualrecognition,BuildUP,3,2.0,2.0,2.0,1.0,1.0,9.0,25.0,1.0,9.0,1.0,new,AVSW_LowCogLoad,L10_LD.png,1.0,356.0
469,2,C,2,visualrecognition,BuildUP,3,2.0,2.0,2.0,1.0,1.0,10.0,30.0,1.0,10.0,1.0,new,AVSW_LowCogLoad,L11_RU.png,1.0,552.0
470,2,C,2,visualrecognition,BuildUP,3,2.0,2.0,2.0,1.0,1.0,11.0,10.0,1.0,11.0,1.0,UpDown,AVSW_LowCogLoad,L10_RD_big.png,0.0,590.0
471,2,C,2,visualrecognition,BuildUP,3,2.0,2.0,2.0,1.0,1.0,12.0,23.0,1.0,12.0,1.0,new,AVSW_LowCogLoad,L9_LU.png,1.0,973.0
472,2,C,2,visualrecognition,BuildUP,3,2.0,2.0,2.0,1.0,1.0,13.0,11.0,1.0,13.0,1.0,control,AVSW_LowCogLoad,L11_RD_big.png,0.0,392.0
473,2,C,2,visualrecognition,BuildUP,3,2.0,2.0,2.0,1.0,1.0,14.0,19.0,1.0,14.0,1.0,new,AVSW_LowCogLoad,L9_RU_big.png,1.0,362.0
474,2,C,2,visualrecognition,BuildUP,3,2.0,2.0,2.0,1.0,1.0,15.0,22.0,1.0,15.0,1.0,new,AVSW_LowCogLoad,L12_RU.png,1.0,564.0
475,2,C,2,visualrecognition,BuildUP,3,2.0,2.0,2.0,1.0,1.0,16.0,6.0,1.0,16.0,1.0,control,AVSW_LowCogLoad,L12_LD.png,0.0,616.0
476,2,C,2,visualrecognition,BuildUP,3,2.0,2.0,2.0,1.0,1.0,17.0,29.0,1.0,17.0,1.0,new,AVSW_LowCogLoad,L11_LU_big.png,1.0,584.0
477,2,C,2,visualrecognition,BuildUP,3,2.0,2.0,2.0,1.0,1.0,18.0,8.0,1.0,18.0,1.0,LeftRight,AVSW_LowCogLoad,L9_LD_big.png,0.0,910.0
478,2,C,2,visualrecognition,BuildUP,3,2.0,2.0,2.0,1.0,1.0,19.0,14.0,1.0,19.0,1.0,new,AVSW_LowCogLoad,L12_RD_big.png,1.0,673.0
479,2,C,2,visualrecognition,BuildUP,3,2.0,2.0,2.0,1.0,1.0,20.0,13.0,1.0,20.0,1.0,new,AVSW_LowCogLoad,L11_RU_big.png,1.0,661.0
480,2,C,2,visualrecognition,BuildUP,3,2.0,2.0,2.0,1.0,1.0,21.0,32.0,1.0,21.0,1.0,new,AVSW_LowCogLoad,L12_RD.png,1.0,592.0
481,2,C,2,visualrecognition,BuildUP,3,2.0,2.0,2.0,1.0,1.0,22.0,9.0,1.0,22.0,1.0,UpDown,AVSW_LowCogLoad,L10_RU_big.png,1.0,1085.0
482,2,C,2,visualrecognition,BuildUP,3,2.0,2.0,2.0,1.0,1.0,23.0,5.0,1.0,23.0,1.0,control,AVSW_LowCogLoad,L11_RD.png,1.0,562.0
483,2,C,2,visualrecognition,BuildUP,3,2.0,2.0,2.0,1.0,1.0,24.0,3.0,1.0,24.0,1.0,UpDown,AVSW_LowCogLoad,L10_RU.png,1.0,855.0
484,2,C,2,visualrecognition,BuildUP,3,2.0,2.0,2.0,1.0,1.0,25.0,31.0,1.0,25.0,1.0,new,AVSW_LowCogLoad,L12_LU.png,1.0,797.0
485,2,C,2,visualrecognition,BuildUP,3,2.0,2.0,2.0,1.0,1.0,26.0,18.0,1.0,26.0,1.0,new,AVSW_LowCogLoad,L12_LU_big.png,1.0,574.0
486,2,C,2,visualrecognition,BuildUP,3,2.0,2.0,2.0,1.0,1.0,27.0,27.0,1.0,27.0,1.0,new,AVSW_LowCogLoad,L11_LD.png,1.0,534.0
487,2,C,2,visualrecognition,BuildUP,3,2.0,2.0,2.0,1.0,1.0,28.0,15.0,1.0,28.0,1.0,new,AVSW_LowCogLoad,L10_LU_big.png,1.0,687.0
488,2,C,2,visualrecognition,BuildUP,3,2.0,2.0,2.0,1.0,1.0,29.0,12.0,1.0,29.0,1.0,control,AVSW_LowCogLoad,L12_LD_big.png,1.0,679.0
489,2,C,2,visualrecognition,BuildUP,3,2.0,2.0,2.0,1.0,1.0,30.0,17.0,1.0,30.0,1.0,new,AVSW_LowCogLoad,L12_RU_big.png,1.0,554.0
490,2,C,2,visualrecognition,BuildUP,3,2.0,2.0,2.0,1.0,1.0,31.0,21.0,1.0,31.0,1.0,new,AVSW_LowCogLoad,L11_LD_big.png,1.0,587.0
491,2,C,2,visualrecognition,BuildUP,3,2.0,2.0,2.0,1.0,1.0,32.0,24.0,1.0,32.0,1.0,new,AVSW_LowCogLoad,L9_RU.png,1.0,592.0
492,2,C,2,visualrecognition,BuildUP,3,2.0,2.0,2.0,1.0,1.0,33.0,11.0,2.0,33.0,1.0,control,AVSW_LowCogLoad,L11_RD_big.png,1.0,951.0
493,2,C,2,visualrecognition,BuildUP,3,2.0,2.0,2.0,1.0,1.0,34.0,18.0,2.0,34.0,1.0,new,AVSW_LowCogLoad,L12_LU_big.png,1.0,546.0
494,2,C,2,visualrecognition,BuildUP,3,2.0,2.0,2.0,1.0,1.0,35.0,17.0,2.0,35.0,1.0,new,AVSW_LowCogLoad,L12_RU_big.png,1.0,548.0
495,2,C,2,visualrecognition,BuildUP,3,2.0,2.0,2.0,1.0,1.0,36.0,4.0,2.0,36.0,1.0,UpDown,AVSW_LowCogLoad,L10_RD.png,1.0,1369.0
496,2,C,2,visualrecognition,BuildUP,3,2.0,2.0,2.0,1.0,1.0,37.0,24.0,2.0,37.0,1.0,new,AVSW_LowCogLoad,L9_RU.png,1.0,651.0
497,2,C,2,visualrecognition,BuildUP,3,2.0,2.0,2.0,1.0,1.0,38.0,19.0,2.0,38.0,1.0,new,AVSW_LowCogLoad,L9_RU_big.png,1.0,650.0
498,2,C,2,visualrecognition,BuildUP,3,2.0,2.0,2.0,1.0,1.0,39.0,29.0,2.0,39.0,1.0,new,AVSW_LowCogLoad,L11_LU_big.png,1.0,783.0
499,2,C,2,visualrecognition,BuildUP,3,2.0,2.0,2.0,1.0,1.0,40.0,32.0,2.0,40.0,1.0,new,AVSW_LowCogLoad,L12_RD.png,1.0,497.0
500,2,C,2,visualrecognition,BuildUP,3,2.0,2.0,2.0,1.0,1.0,41.0,25.0,2.0,41.0,1.0,new,AVSW_LowCogLoad,L10_LD.png,1.0,708.0
501,2,C,2,visualrecognition,BuildUP,3,2.0,2.0,2.0,1.0,1.0,42.0,20.0,2.0,42.0,1.0,new,AVSW_LowCogLoad,L9_LU_big.png,1.0,499.0
502,2,C,2,visualrecognition,BuildUP,3,2.0,2.0,2.0,1.0,1.0,43.0,1.0,2.0,43.0,1.0,LeftRight,AVSW_LowCogLoad,L9_RD.png,1.0,584.0
503,2,C,2,visualrecognition,BuildUP,3,2.0,2.0,2.0,1.0,1.0,44.0,28.0,2.0,44.0,1.0,new,AVSW_LowCogLoad,L11_LU.png,1.0,403.0
504,2,C,2,visualrecognition,BuildUP,3,2.0,2.0,2.0,1.0,1.0,45.0,14.0,2.0,45.0,1.0,new,AVSW_LowCogLoad,L12_RD_big.png,1.0,472.0
505,2,C,2,visualrecognition,BuildUP,3,2.0,2.0,2.0,1.0,1.0,46.0,5.0,2.0,46.0,1.0,control,AVSW_LowCogLoad,L11_RD.png,1.0,954.0
506,2,C,2,visualrecognition,BuildUP,3,2.0,2.0,2.0,1.0,1.0,47.0,16.0,2.0,47.0,1.0,new,AVSW_LowCogLoad,L10_LD_big.png,1.0,697.0
507,2,C,2,visualrecognition,BuildUP,3,2.0,2.0,2.0,1.0,1.0,48.0,3.0,2.0,48.0,1.0,UpDown,AVSW_LowCogLoad,L10_RU.png,1.0,1546.0
508,2,C,2,visualrecognition,BuildUP,3,2.0,2.0,2.0,1.0,1.0,49.0,8.0,2.0,49.0,1.0,LeftRight,AVSW_LowCogLoad,L9_LD_big.png,1.0,823.0
509,2,C,2,visualrecognition,BuildUP,3,2.0,2.0,2.0,1.0,1.0,50.0,12.0,2.0,50.0,1.0,control,AVSW_LowCogLoad,L12_LD_big.png,0.0,543.0
510,2,C,2,visualrecognition,BuildUP,3,2.0,2.0,2.0,1.0,1.0,51.0,22.0,2.0,51.0,1.0,new,AVSW_LowCogLoad,L12_RU.png,1.0,598.0
511,2,C,2,visualrecognition,BuildUP,3,2.0,2.0,2.0,1.0,1.0,52.0,21.0,2.0,52.0,1.0,new,AVSW_LowCogLoad,L11_LD_big.png,1.0,514.0
512,2,C,2,visualrecognition,BuildUP,3,2.0,2.0,2.0,1.0,1.0,53.0,10.0,2.0,53.0,1.0,UpDown,AVSW_LowCogLoad,L10_RD_big.png,1.0,505.0
513,2,C,2,visualrecognition,BuildUP,3,2.0,2.0,2.0,1.0,1.0,54.0,9.0,2.0,54.0,1.0,UpDown,AVSW_LowCogLoad,L10_RU_big.png,1.0,621.0
514,2,C,2,visualrecognition,BuildUP,3,2.0,2.0,2.0,1.0,1.0,55.0,2.0,2.0,55.0,1.0,LeftRight,AVSW_LowCogLoad,L9_LD.png,1.0,635.0
515,2,C,2,visualrecognition,BuildUP,3,2.0,2.0,2.0,1.0,1.0,56.0,31.0,2.0,56.0,1.0,new,AVSW_LowCogLoad,L12_LU.png,1.0,576.0
516,2,C,2,visualrecognition,BuildUP,3,2.0,2.0,2.0,1.0,1.0,57.0,13.0,2.0,57.0,1.0,new,AVSW_LowCogLoad,L11_RU_big.png,1.0,615.0
517,2,C,2,visualrecognition,BuildUP,3,2.0,2.0,2.0,1.0,1.0,58.0,23.0,2.0,58.0,1.0,new,AVSW_LowCogLoad,L9_LU.png,1.0,469.0
518,2,C,2,visualrecognition,BuildUP,3,2.0,2.0,2.0,1.0,1.0,59.0,26.0,2.0,59.0,1.0,new,AVSW_LowCogLoad,L10_LU.png,1.0,638.0
519,2,C,2,visualrecognition,BuildUP,3,2.0,2.0,2.0,1.0,1.0,60.0,15.0,2.0,60.0,1.0,new,AVSW_LowCogLoad,L10_LU_big.png,1.0,448.0
520,2,C,2,visualrecognition,BuildUP,3,2.0,2.0,2.0,1.0,1.0,61.0,30.0,2.0,61.0,1.0,new,AVSW_LowCogLoad,L11_RU.png,1.0,695.0
521,2,C,2,visualrecognition,BuildUP,3,2.0,2.0,2.0,1.0,1.0,62.0,7.0,2.0,62.0,1.0,LeftRight,AVSW_LowCogLoad,L9_RD_big.png,1.0,713.0
522,2,C,2,visualrecognition,BuildUP,3,2.0,2.0,2.0,1.0,1.0,63.0,6.0,2.0,63.0,1.0,control,AVSW_LowCogLoad,L12_LD.png,0.0,377.0
523,2,C,2,visualrecognition,BuildUP,3,2.0,2.0,2.0,1.0,1.0,64.0,27.0,2.0,64.0,1.0,new,AVSW_LowCogLoad,L11_LD.png,1.0,514.0
524,2,A,2,visualrecognition,LowCOG,2,2.0,2.0,2.0,1.0,1.0,1.0,20.0,1.0,1.0,1.0,new,AVSW_Build_up,L2_LD.png,1.0,1875.0
525,2,A,2,visualrecognition,LowCOG,2,2.0,2.0,2.0,1.0,1.0,2.0,9.0,1.0,2.0,1.0,UpDown,AVSW_Build_up,L2_RD_big.png,1.0,568.0
526,2,A,2,visualrecognition,LowCOG,2,2.0,2.0,2.0,1.0,1.0,3.0,21.0,1.0,3.0,1.0,new,AVSW_Build_up,L2_LD_big.png,1.0,530.0
527,2,A,2,visualrecognition,LowCOG,2,2.0,2.0,2.0,1.0,1.0,4.0,10.0,1.0,4.0,1.0,UpDown,AVSW_Build_up,L2_RU_big.png,0.0,586.0
528,2,A,2,visualrecognition,LowCOG,2,2.0,2.0,2.0,1.0,1.0,5.0,16.0,1.0,5.0,1.0,new,AVSW_Build_up,L4_LU_big.png,0.0,539.0
529,2,A,2,visualrecognition,LowCOG,2,2.0,2.0,2.0,1.0,1.0,6.0,1.0,1.0,6.0,1.0,LeftRight,AVSW_Build_up,L1_RU.png,1.0,681.0
530,2,A,2,visualrecognition,LowCOG,2,2.0,2.0,2.0,1.0,1.0,7.0,15.0,1.0,7.0,1.0,new,AVSW_Build_up,L3_RU_big.png,1.0,574.0
531,2,A,2,visualrecognition,LowCOG,2,2.0,2.0,2.0,1.0,1.0,8.0,7.0,1.0,8.0,1.0,LeftRight,AVSW_Build_up,L1_RU_big.png,1.0,637.0
532,2,A,2,visualrecognition,LowCOG,2,2.0,2.0,2.0,1.0,1.0,9.0,18.0,1.0,9.0,1.0,new,AVSW_Build_up,L1_RD.png,1.0,392.0
533,2,A,2,visualrecognition,LowCOG,2,2.0,2.0,2.0,1.0,1.0,10.0,4.0,1.0,10.0,1.0,UpDown,AVSW_Build_up,L2_RU.png,1.0,509.0
534,2,A,2,visualrecognition,LowCOG,2,2.0,2.0,2.0,1.0,1.0,11.0,27.0,1.0,11.0,1.0,new,AVSW_Build_up,L3_RD.png,1.0,540.0
535,2,A,2,visualrecognition,LowCOG,2,2.0,2.0,2.0,1.0,1.0,12.0,6.0,1.0,12.0,1.0,control,AVSW_Build_up,L4_RU.png,1.0,471.0
536,2,A,2,visualrecognition,LowCOG,2,2.0,2.0,2.0,1.0,1.0,13.0,22.0,1.0,13.0,1.0,new,AVSW_Build_up,L2_LU_big.png,0.0,596.0
537,2,A,2,visualrecognition,LowCOG,2,2.0,2.0,2.0,1.0,1.0,14.0,14.0,1.0,14.0,1.0,new,AVSW_Build_up,L1_LD_big.png,1.0,522.0
538,2,A,2,visualrecognition,LowCOG,2,2.0,2.0,2.0,1.0,1.0,15.0,29.0,1.0,15.0,1.0,new,AVSW_Build_up,L4_LD.png,1.0,542.0
539,2,A,2,visualrecognition,LowCOG,2,2.0,2.0,2.0,1.0,1.0,16.0,25.0,1.0,16.0,1.0,new,AVSW_Build_up,L2_LU.png,1.0,601.0
540,2,A,2,visualrecognition,LowCOG,2,2.0,2.0,2.0,1.0,1.0,17.0,8.0,1.0,17.0,1.0,LeftRight,AVSW_Build_up,L1_LU_big.png,1.0,584.0
541,2,A,2,visualrecognition,LowCOG,2,2.0,2.0,2.0,1.0,1.0,18.0,19.0,1.0,18.0,1.0,new,AVSW_Build_up,L3_RD_big.png,1.0,384.0
542,2,A,2,visualrecognition,LowCOG,2,2.0,2.0,2.0,1.0,1.0,19.0,17.0,1.0,19.0,1.0,new,AVSW_Build_up,L1_LD.png,1.0,375.0
543,2,A,2,visualrecognition,LowCOG,2,2.0,2.0,2.0,1.0,1.0,20.0,28.0,1.0,20.0,1.0,new,AVSW_Build_up,L3_RU.png,1.0,515.0
544,2,A,2,visualrecognition,LowCOG,2,2.0,2.0,2.0,1.0,1.0,21.0,31.0,1.0,21.0,1.0,new,AVSW_Build_up,L4_LU.png,1.0,939.0
545,2,A,2,visualrecognition,LowCOG,2,2.0,2.0,2.0,1.0,1.0,22.0,23.0,1.0,22.0,1.0,new,AVSW_Build_up,L3_LD_big.png,1.0,638.0
546,2,A,2,visualrecognition,LowCOG,2,2.0,2.0,2.0,1.0,1.0,23.0,11.0,1.0,23.0,1.0,control,AVSW_Build_up,L3_LU_big.png,0.0,441.0
547,2,A,2,visualrecognition,LowCOG,2,2.0,2.0,2.0,1.0,1.0,24.0,32.0,1.0,24.0,1.0,new,AVSW_Build_up,L4_RD.png,1.0,542.0
548,2,A,2,visualrecognition,LowCOG,2,2.0,2.0,2.0,1.0,1.0,25.0,26.0,1.0,25.0,1.0,new,AVSW_Build_up,L3_LD.png,1.0,516.0
549,2,A,2,visualrecognition,LowCOG,2,2.0,2.0,2.0,1.0,1.0,26.0,24.0,1.0,26.0,1.0,new,AVSW_Build_up,L4_RD_big.png,1.0,538.0
550,2,A,2,visualrecognition,LowCOG,2,2.0,2.0,2.0,1.0,1.0,27.0,13.0,1.0,27.0,1.0,new,AVSW_Build_up,L1_RD_big.png,1.0,482.0
551,2,A,2,visualrecognition,LowCOG,2,2.0,2.0,2.0,1.0,1.0,28.0,2.0,1.0,28.0,1.0,LeftRight,AVSW_Build_up,L1_LU.png,0.0,350.0
552,2,A,2,visualrecognition,LowCOG,2,2.0,2.0,2.0,1.0,1.0,29.0,3.0,1.0,29.0,1.0,UpDown,AVSW_Build_up,L2_RD.png,1.0,771.0
553,2,A,2,visualrecognition,LowCOG,2,2.0,2.0,2.0,1.0,1.0,30.0,5.0,1.0,30.0,1.0,control,AVSW_Build_up,L3_LU.png,1.0,490.0
554,2,A,2,visualrecognition,LowCOG,2,2.0,2.0,2.0,1.0,1.0,31.0,12.0,1.0,31.0,1.0,control,AVSW_Build_up,L4_RU_big.png,1.0,713.0
555,2,A,2,visualrecognition,LowCOG,2,2.0,2.0,2.0,1.0,1.0,32.0,30.0,1.0,32.0,1.0,new,AVSW_Build_up,L4_LD_big.png,1.0,590.0
556,2,A,2,visualrecognition,LowCOG,2,2.0,2.0,2.0,1.0,1.0,33.0,14.0,2.0,33.0,1.0,new,AVSW_Build_up,L1_LD_big.png,1.0,581.0
557,2,A,2,visualrecognition,LowCOG,2,2.0,2.0,2.0,1.0,1.0,34.0,31.0,2.0,34.0,1.0,new,AVSW_Build_up,L4_LU.png,1.0,600.0
558,2,A,2,visualrecognition,LowCOG,2,2.0,2.0,2.0,1.0,1.0,35.0,6.0,2.0,35.0,1.0,control,AVSW_Build_up,L4_RU.png,1.0,533.0
559,2,A,2,visualrecognition,LowCOG,2,2.0,2.0,2.0,1.0,1.0,36.0,26.0,2.0,36.0,1.0,new,AVSW_Build_up,L3_LD.png,1.0,543.0
560,2,A,2,visualrecognition,LowCOG,2,2.0,2.0,2.0,1.0,1.0,37.0,19.0,2.0,37.0,1.0,new,AVSW_Build_up,L3_RD_big.png,1.0,603.0
561,2,A,2,visualrecognition,LowCOG,2,2.0,2.0,2.0,1.0,1.0,38.0,4.0,2.0,38.0,1.0,UpDown,AVSW_Build_up,L2_RU.png,1.0,542.0
562,2,A,2,visualrecognition,LowCOG,2,2.0,2.0,2.0,1.0,1.0,39.0,24.0,2.0,39.0,1.0,new,AVSW_Build_up,L4_RD_big.png,1.0,492.0
563,2,A,2,visualrecognition,LowCOG,2,2.0,2.0,2.0,1.0,1.0,40.0,7.0,2.0,40.0,1.0,LeftRight,AVSW_Build_up,L1_RU_big.png,1.0,568.0
564,2,A,2,visualrecognition,LowCOG,2,2.0,2.0,2.0,1.0,1.0,41.0,11.0,2.0,41.0,1.0,control,AVSW_Build_up,L3_LU_big.png,1.0,516.0
565,2,A,2,visualrecognition,LowCOG,2,2.0,2.0,2.0,1.0,1.0,42.0,30.0,2.0,42.0,1.0,new,AVSW_Build_up,L4_LD_big.png,1.0,566.0
566,2,A,2,visualrecognition,LowCOG,2,2.0,2.0,2.0,1.0,1.0,43.0,27.0,2.0,43.0,1.0,new,AVSW_Build_up,L3_RD.png,1.0,490.0
567,2,A,2,visualrecognition,LowCOG,2,2.0,2.0,2.0,1.0,1.0,44.0,15.0,2.0,44.0,1.0,new,AVSW_Build_up,L3_RU_big.png,1.0,589.0
568,2,A,2,visualrecognition,LowCOG,2,2.0,2.0,2.0,1.0,1.0,45.0,1.0,2.0,45.0,1.0,LeftRight,AVSW_Build_up,L1_RU.png,1.0,650.0
569,2,A,2,visualrecognition,LowCOG,2,2.0,2.0,2.0,1.0,1.0,46.0,12.0,2.0,46.0,1.0,control,AVSW_Build_up,L4_RU_big.png,1.0,594.0
570,2,A,2,visualrecognition,LowCOG,2,2.0,2.0,2.0,1.0,1.0,47.0,5.0,2.0,47.0,1.0,control,AVSW_Build_up,L3_LU.png,1.0,584.0
571,2,A,2,visualrecognition,LowCOG,2,2.0,2.0,2.0,1.0,1.0,48.0,10.0,2.0,48.0,1.0,UpDown,AVSW_Build_up,L2_RU_big.png,1.0,554.0
572,2,A,2,visualrecognition,LowCOG,2,2.0,2.0,2.0,1.0,1.0,49.0,23.0,2.0,49.0,1.0,new,AVSW_Build_up,L3_LD_big.png,1.0,570.0
573,2,A,2,visualrecognition,LowCOG,2,2.0,2.0,2.0,1.0,1.0,50.0,20.0,2.0,50.0,1.0,new,AVSW_Build_up,L2_LD.png,0.0,537.0
574,2,A,2,visualrecognition,LowCOG,2,2.0,2.0,2.0,1.0,1.0,51.0,25.0,2.0,51.0,1.0,new,AVSW_Build_up,L2_LU.png,1.0,613.0
575,2,A,2,visualrecognition,LowCOG,2,2.0,2.0,2.0,1.0,1.0,52.0,17.0,2.0,52.0,1.0,new,AVSW_Build_up,L1_LD.png,1.0,603.0
576,2,A,2,visualrecognition,LowCOG,2,2.0,2.0,2.0,1.0,1.0,53.0,3.0,2.0,53.0,1.0,UpDown,AVSW_Build_up,L2_RD.png,1.0,585.0
577,2,A,2,visualrecognition,LowCOG,2,2.0,2.0,2.0,1.0,1.0,54.0,22.0,2.0,54.0,1.0,new,AVSW_Build_up,L2_LU_big.png,1.0,501.0
578,2,A,2,visualrecognition,LowCOG,2,2.0,2.0,2.0,1.0,1.0,55.0,29.0,2.0,55.0,1.0,new,AVSW_Build_up,L4_LD.png,1.0,493.0
579,2,A,2,visualrecognition,LowCOG,2,2.0,2.0,2.0,1.0,1.0,56.0,21.0,2.0,56.0,1.0,new,AVSW_Build_up,L2_LD_big.png,1.0,612.0
580,2,A,2,visualrecognition,LowCOG,2,2.0,2.0,2.0,1.0,1.0,57.0,28.0,2.0,57.0,1.0,new,AVSW_Build_up,L3_RU.png,1.0,495.0
581,2,A,2,visualrecognition,LowCOG,2,2.0,2.0,2.0,1.0,1.0,58.0,18.0,2.0,58.0,1.0,new,AVSW_Build_up,L1_RD.png,1.0,443.0
582,2,A,2,visualrecognition,LowCOG,2,2.0,2.0,2.0,1.0,1.0,59.0,32.0,2.0,59.0,1.0,new,AVSW_Build_up,L4_RD.png,1.0,495.0
583,2,A,2,visualrecognition,LowCOG,2,2.0,2.0,2.0,1.0,1.0,60.0,2.0,2.0,60.0,1.0,LeftRight,AVSW_Build_up,L1_LU.png,1.0,509.0
584,2,A,2,visualrecognition,LowCOG,2,2.0,2.0,2.0,1.0,1.0,61.0,8.0,2.0,61.0,1.0,LeftRight,AVSW_Build_up,L1_LU_big.png,1.0,598.0
585,2,A,2,visualrecognition,LowCOG,2,2.0,2.0,2.0,1.0,1.0,62.0,13.0,2.0,62.0,1.0,new,AVSW_Build_up,L1_RD_big.png,1.0,546.0
586,2,A,2,visualrecognition,LowCOG,2,2.0,2.0,2.0,1.0,1.0,63.0,16.0,2.0,63.0,1.0,new,AVSW_Build_up,L4_LU_big.png,1.0,541.0
587,2,A,2,visualrecognition,LowCOG,2,2.0,2.0,2.0,1.0,1.0,64.0,9.0,2.0,64.0,1.0,UpDown,AVSW_Build_up,L2_RD_big.png,1.0,552.0
588,2,B,1,visualrecognition,AV,1,2.0,1.0,2.0,1.0,1.0,1.0,1.0,1.0,1.0,1.0,LeftRight,AV,L5_RD.png,1.0,2202.0
589,2,B,1,visualrecognition,AV,1,2.0,1.0,2.0,1.0,1.0,2.0,13.0,1.0,2.0,1.0,LeftRight,AV,L5_LD_big.png,1.0,570.0
590,2,B,1,visualrecognition,AV,1,2.0,1.0,2.0,1.0,1.0,3.0,18.0,1.0,3.0,1.0,UpDown,AV,L6_LU_big.png,1.0,742.0
591,2,B,1,visualrecognition,AV,1,2.0,1.0,2.0,1.0,1.0,4.0,7.0,1.0,4.0,1.0,UpDown,AV,L5_LU.png,1.0,949.0
592,2,B,1,visualrecognition,AV,1,2.0,1.0,2.0,1.0,1.0,5.0,11.0,1.0,5.0,1.0,New,AV,L7_RD.png,1.0,759.0
593,2,B,1,visualrecognition,AV,1,2.0,1.0,2.0,1.0,1.0,6.0,17.0,1.0,6.0,1.0,UpDown,AV,L6_LD_big.png,0.0,929.0
594,2,B,1,visualrecognition,AV,1,2.0,1.0,2.0,1.0,1.0,7.0,3.0,1.0,7.0,1.0,UpDown,AV,L6_LD.png,1.0,773.0
595,2,B,1,visualrecognition,AV,1,2.0,1.0,2.0,1.0,1.0,8.0,29.0,1.0,8.0,1.0,New,AV,L8_RU.png,1.0,621.0
596,2,B,1,visualrecognition,AV,1,2.0,1.0,2.0,1.0,1.0,9.0,15.0,1.0,9.0,1.0,New,AV,L5_LU_big.png,1.0,673.0
597,2,B,1,visualrecognition,AV,1,2.0,1.0,2.0,1.0,1.0,10.0,24.0,1.0,10.0,1.0,New,AV,L7_RU.png,1.0,579.0
598,2,B,1,visualrecognition,AV,1,2.0,1.0,2.0,1.0,1.0,11.0,8.0,1.0,11.0,1.0,UpDown,AV,L5_RU.png,1.0,623.0
599,2,B,1,visualrecognition,AV,1,2.0,1.0,2.0,1.0,1.0,12.0,16.0,1.0,12.0,1.0,New,AV,L5_RU_big.png,1.0,441.0
600,2,B,1,visualrecognition,AV,1,2.0,1.0,2.0,1.0,1.0,13.0,26.0,1.0,13.0,1.0,New,AV,L8_LD.png,1.0,603.0
601,2,B,1,visualrecognition,AV,1,2.0,1.0,2.0,1.0,1.0,14.0,5.0,1.0,14.0,1.0,control,AV,L7_LD.png,1.0,626.0
602,2,B,1,visualrecognition,AV,1,2.0,1.0,2.0,1.0,1.0,15.0,20.0,1.0,15.0,1.0,New,AV,L6_RD_big.png,1.0,728.0
603,2,B,1,visualrecognition,AV,1,2.0,1.0,2.0,1.0,1.0,16.0,32.0,1.0,16.0,1.0,New,AV,L8_RU_big.png,1.0,528.0
604,2,B,1,visualrecognition,AV,1,2.0,1.0,2.0,1.0,1.0,17.0,19.0,1.0,17.0,1.0,New,AV,L6_RD.png,1.0,846.0
605,2,B,1,visualrecognition,AV,1,2.0,1.0,2.0,1.0,1.0,18.0,10.0,1.0,18.0,1.0,New,AV,L7_LU_big.png,1.0,636.0
606,2,B,1,visualrecognition,AV,1,2.0,1.0,2.0,1.0,1.0,19.0,31.0,1.0,19.0,1.0,New,AV,L8_LU_big.png,1.0,464.0
607,2,B,1,visualrecognition,AV,1,2.0,1.0,2.0,1.0,1.0,20.0,25.0,1.0,20.0,1.0,New,AV,L7_RU_big.png,1.0,464.0
608,2,B,1,visualrecognition,AV,1,2.0,1.0,2.0,1.0,1.0,21.0,6.0,1.0,21.0,1.0,control,AV,L8_RD.png,1.0,613.0
609,2,B,1,visualrecognition,AV,1,2.0,1.0,2.0,1.0,1.0,22.0,9.0,1.0,22.0,1.0,New,AV,L7_LU.png,1.0,543.0
610,2,B,1,visualrecognition,AV,1,2.0,1.0,2.0,1.0,1.0,23.0,28.0,1.0,23.0,1.0,New,AV,L8_RD_big.png,1.0,655.0
611,2,B,1,visualrecognition,AV,1,2.0,1.0,2.0,1.0,1.0,24.0,12.0,1.0,24.0,1.0,New,AV,L7_RD_big.png,1.0,486.0
612,2,B,1,visualrecognition,AV,1,2.0,1.0,2.0,1.0,1.0,25.0,27.0,1.0,25.0,1.0,New,AV,L8_LU.png,1.0,591.0
613,2,B,1,visualrecognition,AV,1,2.0,1.0,2.0,1.0,1.0,26.0,21.0,1.0,26.0,1.0,New,AV,L6_RU.png,1.0,502.0
614,2,B,1,visualrecognition,AV,1,2.0,1.0,2.0,1.0,1.0,27.0,30.0,1.0,27.0,1.0,New,AV,L8_LD_big.png,1.0,485.0
615,2,B,1,visualrecognition,AV,1,2.0,1.0,2.0,1.0,1.0,28.0,14.0,1.0,28.0,1.0,LeftRight,AV,L5_RD_big.png,0.0,355.0
616,2,B,1,visualrecognition,AV,1,2.0,1.0,2.0,1.0,1.0,29.0,4.0,1.0,29.0,1.0,UpDown,AV,L6_LU.png,1.0,1152.0
617,2,B,1,visualrecognition,AV,1,2.0,1.0,2.0,1.0,1.0,30.0,2.0,1.0,30.0,1.0,LeftRight,AV,L5_LD.png,0.0,535.0
618,2,B,1,visualrecognition,AV,1,2.0,1.0,2.0,1.0,1.0,31.0,23.0,1.0,31.0,1.0,control,AV,L7_LD_big.png,1.0,734.0
619,2,B,1,visualrecognition,AV,1,2.0,1.0,2.0,1.0,1.0,32.0,22.0,1.0,32.0,1.0,New,AV,L6_RU_big.png,1.0,832.0
620,2,B,1,visualrecognition,AV,1,2.0,1.0,2.0,1.0,1.0,33.0,31.0,2.0,33.0,1.0,New,AV,L8_LU_big.png,1.0,575.0
621,2,B,1,visualrecognition,AV,1,2.0,1.0,2.0,1.0,1.0,34.0,28.0,2.0,34.0,1.0,New,AV,L8_RD_big.png,1.0,1312.0
622,2,B,1,visualrecognition,AV,1,2.0,1.0,2.0,1.0,1.0,35.0,1.0,2.0,35.0,1.0,LeftRight,AV,L5_RD.png,1.0,702.0
623,2,B,1,visualrecognition,AV,1,2.0,1.0,2.0,1.0,1.0,36.0,20.0,2.0,36.0,1.0,New,AV,L6_RD_big.png,1.0,747.0
624,2,B,1,visualrecognition,AV,1,2.0,1.0,2.0,1.0,1.0,37.0,17.0,2.0,37.0,1.0,UpDown,AV,L6_LD_big.png,1.0,781.0
625,2,B,1,visualrecognition,AV,1,2.0,1.0,2.0,1.0,1.0,38.0,11.0,2.0,38.0,1.0,New,AV,L7_RD.png,1.0,678.0
626,2,B,1,visualrecognition,AV,1,2.0,1.0,2.0,1.0,1.0,39.0,25.0,2.0,39.0,1.0,New,AV,L7_RU_big.png,1.0,836.0
627,2,B,1,visualrecognition,AV,1,2.0,1.0,2.0,1.0,1.0,40.0,18.0,2.0,40.0,1.0,UpDown,AV,L6_LU_big.png,1.0,705.0
628,2,B,1,visualrecognition,AV,1,2.0,1.0,2.0,1.0,1.0,41.0,22.0,2.0,41.0,1.0,New,AV,L6_RU_big.png,1.0,607.0
629,2,B,1,visualrecognition,AV,1,2.0,1.0,2.0,1.0,1.0,42.0,2.0,2.0,42.0,1.0,LeftRight,AV,L5_LD.png,1.0,640.0
630,2,B,1,visualrecognition,AV,1,2.0,1.0,2.0,1.0,1.0,43.0,23.0,2.0,43.0,1.0,control,AV,L7_LD_big.png,1.0,821.0
631,2,B,1,visualrecognition,AV,1,2.0,1.0,2.0,1.0,1.0,44.0,9.0,2.0,44.0,1.0,New,AV,L7_LU.png,1.0,572.0
632,2,B,1,visualrecognition,AV,1,2.0,1.0,2.0,1.0,1.0,45.0,21.0,2.0,45.0,1.0,New,AV,L6_RU.png,1.0,960.0
633,2,B,1,visualrecognition,AV,1,2.0,1.0,2.0,1.0,1.0,46.0,15.0,2.0,46.0,1.0,New,AV,L5_LU_big.png,1.0,754.0
634,2,B,1,visualrecognition,AV,1,2.0,1.0,2.0,1.0,1.0,47.0,10.0,2.0,47.0,1.0,New,AV,L7_LU_big.png,0.0,580.0
635,2,B,1,visualrecognition,AV,1,2.0,1.0,2.0,1.0,1.0,48.0,6.0,2.0,48.0,1.0,control,AV,L8_RD.png,1.0,744.0
636,2,B,1,visualrecognition,AV,1,2.0,1.0,2.0,1.0,1.0,49.0,16.0,2.0,49.0,1.0,New,AV,L5_RU_big.png,1.0,559.0
637,2,B,1,visualrecognition,AV,1,2.0,1.0,2.0,1.0,1.0,50.0,4.0,2.0,50.0,1.0,UpDown,AV,L6_LU.png,1.0,897.0
638,2,B,1,visualrecognition,AV,1,2.0,1.0,2.0,1.0,1.0,51.0,27.0,2.0,51.0,1.0,New,AV,L8_LU.png,1.0,606.0
639,2,B,1,visualrecognition,AV,1,2.0,1.0,2.0,1.0,1.0,52.0,8.0,2.0,52.0,1.0,UpDown,AV,L5_RU.png,1.0,525.0
640,2,B,1,visualrecognition,AV,1,2.0,1.0,2.0,1.0,1.0,53.0,29.0,2.0,53.0,1.0,New,AV,L8_RU.png,1.0,558.0
641,2,B,1,visualrecognition,AV,1,2.0,1.0,2.0,1.0,1.0,54.0,30.0,2.0,54.0,1.0,New,AV,L8_LD_big.png,1.0,572.0
642,2,B,1,visualrecognition,AV,1,2.0,1.0,2.0,1.0,1.0,55.0,19.0,2.0,55.0,1.0,New,AV,L6_RD.png,1.0,608.0
643,2,B,1,visualrecognition,AV,1,2.0,1.0,2.0,1.0,1.0,56.0,7.0,2.0,56.0,1.0,UpDown,AV,L5_LU.png,1.0,549.0
644,2,B,1,visualrecognition,AV,1,2.0,1.0,2.0,1.0,1.0,57.0,13.0,2.0,57.0,1.0,LeftRight,AV,L5_LD_big.png,1.0,751.0
645,2,B,1,visualrecognition,AV,1,2.0,1.0,2.0,1.0,1.0,58.0,32.0,2.0,58.0,1.0,New,AV,L8_RU_big.png,1.0,534.0
646,2,B,1,visualrecognition,AV,1,2.0,1.0,2.0,1.0,1.0,59.0,26.0,2.0,59.0,1.0,New,AV,L8_LD.png,1.0,497.0
647,2,B,1,visualrecognition,AV,1,2.0,1.0,2.0,1.0,1.0,60.0,3.0,2.0,60.0,1.0,UpDown,AV,L6_LD.png,1.0,655.0
648,2,B,1,visualrecognition,AV,1,2.0,1.0,2.0,1.0,1.0,61.0,5.0,2.0,61.0,1.0,control,AV,L7_LD.png,0.0,625.0
649,2,B,1,visualrecognition,AV,1,2.0,1.0,2.0,1.0,1.0,62.0,24.0,2.0,62.0,1.0,New,AV,L7_RU.png,1.0,434.0
650,2,B,1,visualrecognition,AV,1,2.0,1.0,2.0,1.0,1.0,63.0,12.0,2.0,63.0,1.0,New,AV,L7_RD_big.png,1.0,569.0
651,2,B,1,visualrecognition,AV,1,2.0,1.0,2.0,1.0,1.0,64.0,14.0,2.0,64.0,1.0,LeftRight,AV,L5_RD_big.png,1.0,754.0
652,2,C,1,visualrecognition,BuildUP,3,2.0,1.0,2.0,1.0,1.0,1.0,24.0,1.0,1.0,1.0,new,AVSW_LowCogLoad,L9_RU.png,1.0,992.0
653,2,C,1,visualrecognition,BuildUP,3,2.0,1.0,2.0,1.0,1.0,2.0,20.0,1.0,2.0,1.0,new,AVSW_LowCogLoad,L9_LU_big.png,1.0,555.0
654,2,C,1,visualrecognition,BuildUP,3,2.0,1.0,2.0,1.0,1.0,3.0,14.0,1.0,3.0,1.0,new,AVSW_LowCogLoad,L12_RD_big.png,1.0,600.0
655,2,C,1,visualrecognition,BuildUP,3,2.0,1.0,2.0,1.0,1.0,4.0,30.0,1.0,4.0,1.0,new,AVSW_LowCogLoad,L11_RU.png,1.0,856.0
656,2,C,1,visualrecognition,BuildUP,3,2.0,1.0,2.0,1.0,1.0,5.0,16.0,1.0,5.0,1.0,new,AVSW_LowCogLoad,L10_LD_big.png,1.0,866.0
657,2,C,1,visualrecognition,BuildUP,3,2.0,1.0,2.0,1.0,1.0,6.0,10.0,1.0,6.0,1.0,UpDown,AVSW_LowCogLoad,L10_RD_big.png,1.0,498.0
658,2,C,1,visualrecognition,BuildUP,3,2.0,1.0,2.0,1.0,1.0,7.0,19.0,1.0,7.0,1.0,new,AVSW_LowCogLoad,L9_RU_big.png,1.0,590.0
659,2,C,1,visualrecognition,BuildUP,3,2.0,1.0,2.0,1.0,1.0,8.0,5.0,1.0,8.0,1.0,control,AVSW_LowCogLoad,L11_RD.png,0.0,592.0
660,2,C,1,visualrecognition,BuildUP,3,2.0,1.0,2.0,1.0,1.0,9.0,11.0,1.0,9.0,1.0,control,AVSW_LowCogLoad,L11_RD_big.png,1.0,650.0
661,2,C,1,visualrecognition,BuildUP,3,2.0,1.0,2.0,1.0,1.0,10.0,2.0,1.0,10.0,1.0,LeftRight,AVSW_LowCogLoad,L9_LD.png,1.0,680.0
662,2,C,1,visualrecognition,BuildUP,3,2.0,1.0,2.0,1.0,1.0,11.0,3.0,1.0,11.0,1.0,UpDown,AVSW_LowCogLoad,L10_RU.png,1.0,981.0
663,2,C,1,visualrecognition,BuildUP,3,2.0,1.0,2.0,1.0,1.0,12.0,29.0,1.0,12.0,1.0,new,AVSW_LowCogLoad,L11_LU_big.png,1.0,642.0
664,2,C,1,visualrecognition,BuildUP,3,2.0,1.0,2.0,1.0,1.0,13.0,22.0,1.0,13.0,1.0,new,AVSW_LowCogLoad,L12_RU.png,0.0,675.0
665,2,C,1,visualrecognition,BuildUP,3,2.0,1.0,2.0,1.0,1.0,14.0,17.0,1.0,14.0,1.0,new,AVSW_LowCogLoad,L12_RU_big.png,1.0,601.0
666,2,C,1,visualrecognition,BuildUP,3,2.0,1.0,2.0,1.0,1.0,15.0,13.0,1.0,15.0,1.0,new,AVSW_LowCogLoad,L11_RU_big.png,1.0,648.0
667,2,C,1,visualrecognition,BuildUP,3,2.0,1.0,2.0,1.0,1.0,16.0,26.0,1.0,16.0,1.0,new,AVSW_LowCogLoad,L10_LU.png,1.0,654.0
668,2,C,1,visualrecognition,BuildUP,3,2.0,1.0,2.0,1.0,1.0,17.0,1.0,1.0,17.0,1.0,LeftRight,AVSW_LowCogLoad,L9_RD.png,1.0,791.0
669,2,C,1,visualrecognition,BuildUP,3,2.0,1.0,2.0,1.0,1.0,18.0,8.0,1.0,18.0,1.0,LeftRight,AVSW_LowCogLoad,L9_LD_big.png,1.0,599.0
670,2,C,1,visualrecognition,BuildUP,3,2.0,1.0,2.0,1.0,1.0,19.0,4.0,1.0,19.0,1.0,UpDown,AVSW_LowCogLoad,L10_RD.png,0.0,1375.0
671,2,C,1,visualrecognition,BuildUP,3,2.0,1.0,2.0,1.0,1.0,20.0,9.0,1.0,20.0,1.0,UpDown,AVSW_LowCogLoad,L10_RU_big.png,1.0,1026.0
672,2,C,1,visualrecognition,BuildUP,3,2.0,1.0,2.0,1.0,1.0,21.0,18.0,1.0,21.0,1.0,new,AVSW_LowCogLoad,L12_LU_big.png,1.0,674.0
673,2,C,1,visualrecognition,BuildUP,3,2.0,1.0,2.0,1.0,1.0,22.0,21.0,1.0,22.0,1.0,new,AVSW_LowCogLoad,L11_LD_big.png,1.0,656.0
674,2,C,1,visualrecognition,BuildUP,3,2.0,1.0,2.0,1.0,1.0,23.0,15.0,1.0,23.0,1.0,new,AVSW_LowCogLoad,L10_LU_big.png,1.0,995.0
675,2,C,1,visualrecognition,BuildUP,3,2.0,1.0,2.0,1.0,1.0,24.0,7.0,1.0,24.0,1.0,LeftRight,AVSW_LowCogLoad,L9_RD_big.png,1.0,753.0
676,2,C,1,visualrecognition,BuildUP,3,2.0,1.0,2.0,1.0,1.0,25.0,32.0,1.0,25.0,1.0,new,AVSW_LowCogLoad,L12_RD.png,1.0,580.0
677,2,C,1,visualrecognition,BuildUP,3,2.0,1.0,2.0,1.0,1.0,26.0,25.0,1.0,26.0,1.0,new,AVSW_LowCogLoad,L10_LD.png,1.0,689.0
678,2,C,1,visualrecognition,BuildUP,3,2.0,1.0,2.0,1.0,1.0,27.0,31.0,1.0,27.0,1.0,new,AVSW_LowCogLoad,L12_LU.png,1.0,676.0
679,2,C,1,visualrecognition,BuildUP,3,2.0,1.0,2.0,1.0,1.0,28.0,28.0,1.0,28.0,1.0,new,AVSW_LowCogLoad,L11_LU.png,1.0,525.0
680,2,C,1,visualrecognition,BuildUP,3,2.0,1.0,2.0,1.0,1.0,29.0,6.0,1.0,29.0,1.0,control,AVSW_LowCogLoad,L12_LD.png,1.0,824.0
681,2,C,1,visualrecognition,BuildUP,3,2.0,1.0,2.0,1.0,1.0,30.0,27.0,1.0,30.0,1.0,new,AVSW_LowCogLoad,L11_LD.png,1.0,558.0
682,2,C,1,visualrecognition,BuildUP,3,2.0,1.0,2.0,1.0,1.0,31.0,12.0,1.0,31.0,1.0,control,AVSW_LowCogLoad,L12_LD_big.png,1.0,608.0
683,2,C,1,visualrecognition,BuildUP,3,2.0,1.0,2.0,1.0,1.0,32.0,23.0,1.0,32.0,1.0,new,AVSW_LowCogLoad,L9_LU.png,1.0,594.0
684,2,C,1,visualrecognition,BuildUP,3,2.0,1.0,2.0,1.0,1.0,33.0,16.0,2.0,33.0,1.0,new,AVSW_LowCogLoad,L10_LD_big.png,1.0,617.0
685,2,C,1,visualrecognition,BuildUP,3,2.0,1.0,2.0,1.0,1.0,34.0,21.0,2.0,34.0,1.0,new,AVSW_LowCogLoad,L11_LD_big.png,1.0,512.0
686,2,C,1,visualrecognition,BuildUP,3,2.0,1.0,2.0,1.0,1.0,35.0,23.0,2.0,35.0,1.0,new,AVSW_LowCogLoad,L9_LU.png,1.0,590.0
687,2,C,1,visualrecognition,BuildUP,3,2.0,1.0,2.0,1.0,1.0,36.0,9.0,2.0,36.0,1.0,UpDown,AVSW_LowCogLoad,L10_RU_big.png,0.0,633.0
688,2,C,1,visualrecognition,BuildUP,3,2.0,1.0,2.0,1.0,1.0,37.0,14.0,2.0,37.0,1.0,new,AVSW_LowCogLoad,L12_RD_big.png,1.0,538.0
689,2,C,1,visualrecognition,BuildUP,3,2.0,1.0,2.0,1.0,1.0,38.0,19.0,2.0,38.0,1.0,new,AVSW_LowCogLoad,L9_RU_big.png,1.0,544.0
690,2,C,1,visualrecognition,BuildUP,3,2.0,1.0,2.0,1.0,1.0,39.0,13.0,2.0,39.0,1.0,new,AVSW_LowCogLoad,L11_RU_big.png,1.0,631.0
691,2,C,1,visualrecognition,BuildUP,3,2.0,1.0,2.0,1.0,1.0,40.0,11.0,2.0,40.0,1.0,control,AVSW_LowCogLoad,L11_RD_big.png,0.0,475.0
692,2,C,1,visualrecognition,BuildUP,3,2.0,1.0,2.0,1.0,1.0,41.0,7.0,2.0,41.0,1.0,LeftRight,AVSW_LowCogLoad,L9_RD_big.png,0.0,738.0
693,2,C,1,visualrecognition,BuildUP,3,2.0,1.0,2.0,1.0,1.0,42.0,17.0,2.0,42.0,1.0,new,AVSW_LowCogLoad,L12_RU_big.png,1.0,760.0
694,2,C,1,visualrecognition,BuildUP,3,2.0,1.0,2.0,1.0,1.0,43.0,29.0,2.0,43.0,1.0,new,AVSW_LowCogLoad,L11_LU_big.png,1.0,601.0
695,2,C,1,visualrecognition,BuildUP,3,2.0,1.0,2.0,1.0,1.0,44.0,5.0,2.0,44.0,1.0,control,AVSW_LowCogLoad,L11_RD.png,1.0,1059.0
696,2,C,1,visualrecognition,BuildUP,3,2.0,1.0,2.0,1.0,1.0,45.0,31.0,2.0,45.0,1.0,new,AVSW_LowCogLoad,L12_LU.png,1.0,683.0
697,2,C,1,visualrecognition,BuildUP,3,2.0,1.0,2.0,1.0,1.0,46.0,20.0,2.0,46.0,1.0,new,AVSW_LowCogLoad,L9_LU_big.png,1.0,551.0
698,2,C,1,visualrecognition,BuildUP,3,2.0,1.0,2.0,1.0,1.0,47.0,25.0,2.0,47.0,1.0,new,AVSW_LowCogLoad,L10_LD.png,1.0,1181.0
699,2,C,1,visualrecognition,BuildUP,3,2.0,1.0,2.0,1.0,1.0,48.0,26.0,2.0,48.0,1.0,new,AVSW_LowCogLoad,L10_LU.png,1.0,590.0
700,2,C,1,visualrecognition,BuildUP,3,2.0,1.0,2.0,1.0,1.0,49.0,18.0,2.0,49.0,1.0,new,AVSW_LowCogLoad,L12_LU_big.png,1.0,662.0
701,2,C,1,visualrecognition,BuildUP,3,2.0,1.0,2.0,1.0,1.0,50.0,2.0,2.0,50.0,1.0,LeftRight,AVSW_LowCogLoad,L9_LD.png,1.0,826.0
702,2,C,1,visualrecognition,BuildUP,3,2.0,1.0,2.0,1.0,1.0,51.0,32.0,2.0,51.0,1.0,new,AVSW_LowCogLoad,L12_RD.png,1.0,536.0
703,2,C,1,visualrecognition,BuildUP,3,2.0,1.0,2.0,1.0,1.0,52.0,8.0,2.0,52.0,1.0,LeftRight,AVSW_LowCogLoad,L9_LD_big.png,1.0,574.0
704,2,C,1,visualrecognition,BuildUP,3,2.0,1.0,2.0,1.0,1.0,53.0,10.0,2.0,53.0,1.0,UpDown,AVSW_LowCogLoad,L10_RD_big.png,0.0,678.0
705,2,C,1,visualrecognition,BuildUP,3,2.0,1.0,2.0,1.0,1.0,54.0,1.0,2.0,54.0,1.0,LeftRight,AVSW_LowCogLoad,L9_RD.png,1.0,515.0
706,2,C,1,visualrecognition,BuildUP,3,2.0,1.0,2.0,1.0,1.0,55.0,6.0,2.0,55.0,1.0,control,AVSW_LowCogLoad,L12_LD.png,1.0,674.0
707,2,C,1,visualrecognition,BuildUP,3,2.0,1.0,2.0,1.0,1.0,56.0,22.0,2.0,56.0,1.0,new,AVSW_LowCogLoad,L12_RU.png,1.0,887.0
708,2,C,1,visualrecognition,BuildUP,3,2.0,1.0,2.0,1.0,1.0,57.0,3.0,2.0,57.0,1.0,UpDown,AVSW_LowCogLoad,L10_RU.png,1.0,658.0
709,2,C,1,visualrecognition,BuildUP,3,2.0,1.0,2.0,1.0,1.0,58.0,15.0,2.0,58.0,1.0,new,AVSW_LowCogLoad,L10_LU_big.png,1.0,781.0
710,2,C,1,visualrecognition,BuildUP,3,2.0,1.0,2.0,1.0,1.0,59.0,30.0,2.0,59.0,1.0,new,AVSW_LowCogLoad,L11_RU.png,1.0,838.0
711,2,C,1,visualrecognition,BuildUP,3,2.0,1.0,2.0,1.0,1.0,60.0,24.0,2.0,60.0,1.0,new,AVSW_LowCogLoad,L9_RU.png,1.0,746.0
712,2,C,1,visualrecognition,BuildUP,3,2.0,1.0,2.0,1.0,1.0,61.0,4.0,2.0,61.0,1.0,UpDown,AVSW_LowCogLoad,L10_RD.png,1.0,945.0
713,2,C,1,visualrecognition,BuildUP,3,2.0,1.0,2.0,1.0,1.0,62.0,28.0,2.0,62.0,1.0,new,AVSW_LowCogLoad,L11_LU.png,1.0,618.0
714,2,C,1,visualrecognition,BuildUP,3,2.0,1.0,2.0,1.0,1.0,63.0,12.0,2.0,63.0,1.0,control,AVSW_LowCogLoad,L12_LD_big.png,1.0,652.0
715,2,C,1,visualrecognition,BuildUP,3,2.0,1.0,2.0,1.0,1.0,64.0,27.0,2.0,64.0,1.0,new,AVSW_LowCogLoad,L11_LD.png,1.0,602.0
716,2,A,1,visualrecognition,LowCOG,2,2.0,1.0,2.0,1.0,1.0,1.0,20.0,1.0,1.0,1.0,new,AVSW_Build_up,L2_LD.png,0.0,2214.0
717,2,A,1,visualrecognition,LowCOG,2,2.0,1.0,2.0,1.0,1.0,2.0,21.0,1.0,2.0,1.0,new,AVSW_Build_up,L2_LD_big.png,1.0,963.0
718,2,A,1,visualrecognition,LowCOG,2,2.0,1.0,2.0,1.0,1.0,3.0,15.0,1.0,3.0,1.0,new,AVSW_Build_up,L3_RU_big.png,1.0,634.0
719,2,A,1,visualrecognition,LowCOG,2,2.0,1.0,2.0,1.0,1.0,4.0,3.0,1.0,4.0,1.0,UpDown,AVSW_Build_up,L2_RD.png,1.0,495.0
720,2,A,1,visualrecognition,LowCOG,2,2.0,1.0,2.0,1.0,1.0,5.0,27.0,1.0,5.0,1.0,new,AVSW_Build_up,L3_RD.png,1.0,577.0
721,2,A,1,visualrecognition,LowCOG,2,2.0,1.0,2.0,1.0,1.0,6.0,12.0,1.0,6.0,1.0,control,AVSW_Build_up,L4_RU_big.png,0.0,563.0
722,2,A,1,visualrecognition,LowCOG,2,2.0,1.0,2.0,1.0,1.0,7.0,19.0,1.0,7.0,1.0,new,AVSW_Build_up,L3_RD_big.png,1.0,500.0
723,2,A,1,visualrecognition,LowCOG,2,2.0,1.0,2.0,1.0,1.0,8.0,2.0,1.0,8.0,1.0,LeftRight,AVSW_Build_up,L1_LU.png,1.0,648.0
724,2,A,1,visualrecognition,LowCOG,2,2.0,1.0,2.0,1.0,1.0,9.0,25.0,1.0,9.0,1.0,new,AVSW_Build_up,L2_LU.png,1.0,610.0
725,2,A,1,visualrecognition,LowCOG,2,2.0,1.0,2.0,1.0,1.0,10.0,18.0,1.0,10.0,1.0,new,AVSW_Build_up,L1_RD.png,0.0,611.0
726,2,A,1,visualrecognition,LowCOG,2,2.0,1.0,2.0,1.0,1.0,11.0,10.0,1.0,11.0,1.0,UpDown,AVSW_Build_up,L2_RU_big.png,0.0,609.0
727,2,A,1,visualrecognition,LowCOG,2,2.0,1.0,2.0,1.0,1.0,12.0,5.0,1.0,12.0,1.0,control,AVSW_Build_up,L3_LU.png,1.0,717.0
728,2,A,1,visualrecognition,LowCOG,2,2.0,1.0,2.0,1.0,1.0,13.0,13.0,1.0,13.0,1.0,new,AVSW_Build_up,L1_RD_big.png,1.0,721.0
729,2,A,1,visualrecognition,LowCOG,2,2.0,1.0,2.0,1.0,1.0,14.0,16.0,1.0,14.0,1.0,new,AVSW_Build_up,L4_LU_big.png,1.0,656.0
730,2,A,1,visualrecognition,LowCOG,2,2.0,1.0,2.0,1.0,1.0,15.0,1.0,1.0,15.0,1.0,LeftRight,AVSW_Build_up,L1_RU.png,1.0,621.0
731,2,A,1,visualrecognition,LowCOG,2,2.0,1.0,2.0,1.0,1.0,16.0,9.0,1.0,16.0,1.0,UpDown,AVSW_Build_up,L2_RD_big.png,1.0,637.0
732,2,A,1,visualrecognition,LowCOG,2,2.0,1.0,2.0,1.0,1.0,17.0,4.0,1.0,17.0,1.0,UpDown,AVSW_Build_up,L2_RU.png,1.0,600.0
733,2,A,1,visualrecognition,LowCOG,2,2.0,1.0,2.0,1.0,1.0,18.0,31.0,1.0,18.0,1.0,new,AVSW_Build_up,L4_LU.png,1.0,629.0
734,2,A,1,visualrecognition,LowCOG,2,2.0,1.0,2.0,1.0,1.0,19.0,24.0,1.0,19.0,1.0,new,AVSW_Build_up,L4_RD_big.png,1.0,612.0
735,2,A,1,visualrecognition,LowCOG,2,2.0,1.0,2.0,1.0,1.0,20.0,6.0,1.0,20.0,1.0,control,AVSW_Build_up,L4_RU.png,1.0,541.0
736,2,A,1,visualrecognition,LowCOG,2,2.0,1.0,2.0,1.0,1.0,21.0,26.0,1.0,21.0,1.0,new,AVSW_Build_up,L3_LD.png,1.0,385.0
737,2,A,1,visualrecognition,LowCOG,2,2.0,1.0,2.0,1.0,1.0,22.0,29.0,1.0,22.0,1.0,new,AVSW_Build_up,L4_LD.png,1.0,543.0
738,2,A,1,visualrecognition,LowCOG,2,2.0,1.0,2.0,1.0,1.0,23.0,28.0,1.0,23.0,1.0,new,AVSW_Build_up,L3_RU.png,1.0,651.0
739,2,A,1,visualrecognition,LowCOG,2,2.0,1.0,2.0,1.0,1.0,24.0,30.0,1.0,24.0,1.0,new,AVSW_Build_up,L4_LD_big.png,1.0,520.0
740,2,A,1,visualrecognition,LowCOG,2,2.0,1.0,2.0,1.0,1.0,25.0,22.0,1.0,25.0,1.0,new,AVSW_Build_up,L2_LU_big.png,1.0,809.0
741,2,A,1,visualrecognition,LowCOG,2,2.0,1.0,2.0,1.0,1.0,26.0,8.0,1.0,26.0,1.0,LeftRight,AVSW_Build_up,L1_LU_big.png,0.0,670.0
742,2,A,1,visualrecognition,LowCOG,2,2.0,1.0,2.0,1.0,1.0,27.0,17.0,1.0,27.0,1.0,new,AVSW_Build_up,L1_LD.png,1.0,589.0
743,2,A,1,visualrecognition,LowCOG,2,2.0,1.0,2.0,1.0,1.0,28.0,23.0,1.0,28.0,1.0,new,AVSW_Build_up,L3_LD_big.png,1.0,574.0
744,2,A,1,visualrecognition,LowCOG,2,2.0,1.0,2.0,1.0,1.0,29.0,7.0,1.0,29.0,1.0,LeftRight,AVSW_Build_up,L1_RU_big.png,1.0,613.0
745,2,A,1,visualrecognition,LowCOG,2,2.0,1.0,2.0,1.0,1.0,30.0,11.0,1.0,30.0,1.0,control,AVSW_Build_up,L3_LU_big.png,1.0,552.0
746,2,A,1,visualrecognition,LowCOG,2,2.0,1.0,2.0,1.0,1.0,31.0,32.0,1.0,31.0,1.0,new,AVSW_Build_up,L4_RD.png,1.0,589.0
747,2,A,1,visualrecognition,LowCOG,2,2.0,1.0,2.0,1.0,1.0,32.0,14.0,1.0,32.0,1.0,new,AVSW_Build_up,L1_LD_big.png,1.0,627.0
748,2,A,1,visualrecognition,LowCOG,2,2.0,1.0,2.0,1.0,1.0,33.0,9.0,2.0,33.0,1.0,UpDown,AVSW_Build_up,L2_RD_big.png,1.0,669.0
749,2,A,1,visualrecognition,LowCOG,2,2.0,1.0,2.0,1.0,1.0,34.0,21.0,2.0,34.0,1.0,new,AVSW_Build_up,L2_LD_big.png,0.0,532.0
750,2,A,1,visualrecognition,LowCOG,2,2.0,1.0,2.0,1.0,1.0,35.0,30.0,2.0,35.0,1.0,new,AVSW_Build_up,L4_LD_big.png,1.0,532.0
751,2,A,1,visualrecognition,LowCOG,2,2.0,1.0,2.0,1.0,1.0,36.0,17.0,2.0,36.0,1.0,new,AVSW_Build_up,L1_LD.png,1.0,653.0
752,2,A,1,visualrecognition,LowCOG,2,2.0,1.0,2.0,1.0,1.0,37.0,19.0,2.0,37.0,1.0,new,AVSW_Build_up,L3_RD_big.png,1.0,512.0
753,2,A,1,visualrecognition,LowCOG,2,2.0,1.0,2.0,1.0,1.0,38.0,5.0,2.0,38.0,1.0,control,AVSW_Build_up,L3_LU.png,1.0,539.0
754,2,A,1,visualrecognition,LowCOG,2,2.0,1.0,2.0,1.0,1.0,39.0,1.0,2.0,39.0,1.0,LeftRight,AVSW_Build_up,L1_RU.png,0.0,534.0
755,2,A,1,visualrecognition,LowCOG,2,2.0,1.0,2.0,1.0,1.0,40.0,8.0,2.0,40.0,1.0,LeftRight,AVSW_Build_up,L1_LU_big.png,1.0,499.0
756,2,A,1,visualrecognition,LowCOG,2,2.0,1.0,2.0,1.0,1.0,41.0,22.0,2.0,41.0,1.0,new,AVSW_Build_up,L2_LU_big.png,1.0,934.0
757,2,A,1,visualrecognition,LowCOG,2,2.0,1.0,2.0,1.0,1.0,42.0,2.0,2.0,42.0,1.0,LeftRight,AVSW_Build_up,L1_LU.png,1.0,638.0
758,2,A,1,visualrecognition,LowCOG,2,2.0,1.0,2.0,1.0,1.0,43.0,13.0,2.0,43.0,1.0,new,AVSW_Build_up,L1_RD_big.png,1.0,522.0
759,2,A,1,visualrecognition,LowCOG,2,2.0,1.0,2.0,1.0,1.0,44.0,18.0,2.0,44.0,1.0,new,AVSW_Build_up,L1_RD.png,1.0,425.0
760,2,A,1,visualrecognition,LowCOG,2,2.0,1.0,2.0,1.0,1.0,45.0,25.0,2.0,45.0,1.0,new,AVSW_Build_up,L2_LU.png,1.0,1039.0
761,2,A,1,visualrecognition,LowCOG,2,2.0,1.0,2.0,1.0,1.0,46.0,15.0,2.0,46.0,1.0,new,AVSW_Build_up,L3_RU_big.png,1.0,611.0
762,2,A,1,visualrecognition,LowCOG,2,2.0,1.0,2.0,1.0,1.0,47.0,31.0,2.0,47.0,1.0,new,AVSW_Build_up,L4_LU.png,1.0,518.0
763,2,A,1,visualrecognition,LowCOG,2,2.0,1.0,2.0,1.0,1.0,48.0,27.0,2.0,48.0,1.0,new,AVSW_Build_up,L3_RD.png,1.0,471.0
764,2,A,1,visualrecognition,LowCOG,2,2.0,1.0,2.0,1.0,1.0,49.0,12.0,2.0,49.0,1.0,control,AVSW_Build_up,L4_RU_big.png,1.0,758.0
765,2,A,1,visualrecognition,LowCOG,2,2.0,1.0,2.0,1.0,1.0,50.0,7.0,2.0,50.0,1.0,LeftRight,AVSW_Build_up,L1_RU_big.png,1.0,943.0
766,2,A,1,visualrecognition,LowCOG,2,2.0,1.0,2.0,1.0,1.0,51.0,11.0,2.0,51.0,1.0,control,AVSW_Build_up,L3_LU_big.png,1.0,748.0
767,2,A,1,visualrecognition,LowCOG,2,2.0,1.0,2.0,1.0,1.0,52.0,16.0,2.0,52.0,1.0,new,AVSW_Build_up,L4_LU_big.png,1.0,649.0
768,2,A,1,visualrecognition,LowCOG,2,2.0,1.0,2.0,1.0,1.0,53.0,3.0,2.0,53.0,1.0,UpDown,AVSW_Build_up,L2_RD.png,1.0,630.0
769,2,A,1,visualrecognition,LowCOG,2,2.0,1.0,2.0,1.0,1.0,54.0,20.0,2.0,54.0,1.0,new,AVSW_Build_up,L2_LD.png,0.0,804.0
770,2,A,1,visualrecognition,LowCOG,2,2.0,1.0,2.0,1.0,1.0,55.0,4.0,2.0,55.0,1.0,UpDown,AVSW_Build_up,L2_RU.png,0.0,686.0
771,2,A,1,visualrecognition,LowCOG,2,2.0,1.0,2.0,1.0,1.0,56.0,32.0,2.0,56.0,1.0,new,AVSW_Build_up,L4_RD.png,1.0,617.0
772,2,A,1,visualrecognition,LowCOG,2,2.0,1.0,2.0,1.0,1.0,57.0,6.0,2.0,57.0,1.0,control,AVSW_Build_up,L4_RU.png,1.0,1049.0
773,2,A,1,visualrecognition,LowCOG,2,2.0,1.0,2.0,1.0,1.0,58.0,28.0,2.0,58.0,1.0,new,AVSW_Build_up,L3_RU.png,1.0,691.0
774,2,A,1,visualrecognition,LowCOG,2,2.0,1.0,2.0,1.0,1.0,59.0,10.0,2.0,59.0,1.0,UpDown,AVSW_Build_up,L2_RU_big.png,1.0,668.0
775,2,A,1,visualrecognition,LowCOG,2,2.0,1.0,2.0,1.0,1.0,60.0,29.0,2.0,60.0,1.0,new,AVSW_Build_up,L4_LD.png,1.0,621.0
776,2,A,1,visualrecognition,LowCOG,2,2.0,1.0,2.0,1.0,1.0,61.0,24.0,2.0,61.0,1.0,new,AVSW_Build_up,L4_RD_big.png,1.0,478.0
777,2,A,1,visualrecognition,LowCOG,2,2.0,1.0,2.0,1.0,1.0,62.0,14.0,2.0,62.0,1.0,new,AVSW_Build_up,L1_LD_big.png,1.0,490.0
778,2,A,1,visualrecognition,LowCOG,2,2.0,1.0,2.0,1.0,1.0,63.0,26.0,2.0,63.0,1.0,new,AVSW_Build_up,L3_LD.png,1.0,472.0
779,2,A,1,visualrecognition,LowCOG,2,2.0,1.0,2.0,1.0,1.0,64.0,23.0,2.0,64.0,1.0,new,AVSW_Build_up,L3_LD_big.png,1.0,419.0
1176,5,A,1,visualrecognition,BuildUP,1,5.0,1.0,5.0,1.0,1.0,1.0,21.0,1.0,1.0,1.0,new,AVSW_Build_up,L2_LD_big.png,0.0,486.0
1177,5,A,1,visualrecognition,BuildUP,1,5.0,1.0,5.0,1.0,1.0,2.0,17.0,1.0,2.0,1.0,new,AVSW_Build_up,L1_LD.png,1.0,858.0
1178,5,A,1,visualrecognition,BuildUP,1,5.0,1.0,5.0,1.0,1.0,3.0,6.0,1.0,3.0,1.0,control,AVSW_Build_up,L4_RU.png,1.0,582.0
1179,5,A,1,visualrecognition,BuildUP,1,5.0,1.0,5.0,1.0,1.0,4.0,4.0,1.0,4.0,1.0,UpDown,AVSW_Build_up,L2_RU.png,1.0,655.0
1180,5,A,1,visualrecognition,BuildUP,1,5.0,1.0,5.0,1.0,1.0,5.0,11.0,1.0,5.0,1.0,control,AVSW_Build_up,L3_LU_big.png,1.0,908.0
1181,5,A,1,visualrecognition,BuildUP,1,5.0,1.0,5.0,1.0,1.0,6.0,31.0,1.0,6.0,1.0,new,AVSW_Build_up,L4_LU.png,1.0,716.0
1182,5,A,1,visualrecognition,BuildUP,1,5.0,1.0,5.0,1.0,1.0,7.0,3.0,1.0,7.0,1.0,UpDown,AVSW_Build_up,L2_RD.png,1.0,602.0
1183,5,A,1,visualrecognition,BuildUP,1,5.0,1.0,5.0,1.0,1.0,8.0,14.0,1.0,8.0,1.0,new,AVSW_Build_up,L1_LD_big.png,1.0,716.0
1184,5,A,1,visualrecognition,BuildUP,1,5.0,1.0,5.0,1.0,1.0,9.0,30.0,1.0,9.0,1.0,new,AVSW_Build_up,L4_LD_big.png,0.0,646.0
1185,5,A,1,visualrecognition,BuildUP,1,5.0,1.0,5.0,1.0,1.0,10.0,29.0,1.0,10.0,1.0,new,AVSW_Build_up,L4_LD.png,1.0,603.0
1186,5,A,1,visualrecognition,BuildUP,1,5.0,1.0,5.0,1.0,1.0,11.0,24.0,1.0,11.0,1.0,new,AVSW_Build_up,L4_RD_big.png,1.0,898.0
1187,5,A,1,visualrecognition,BuildUP,1,5.0,1.0,5.0,1.0,1.0,12.0,7.0,1.0,12.0,1.0,LeftRight,AVSW_Build_up,L1_RU_big.png,1.0,658.0
1188,5,A,1,visualrecognition,BuildUP,1,5.0,1.0,5.0,1.0,1.0,13.0,2.0,1.0,13.0,1.0,LeftRight,AVSW_Build_up,L1_LU.png,1.0,573.0
1189,5,A,1,visualrecognition,BuildUP,1,5.0,1.0,5.0,1.0,1.0,14.0,16.0,1.0,14.0,1.0,new,AVSW_Build_up,L4_LU_big.png,1.0,712.0
1190,5,A,1,visualrecognition,BuildUP,1,5.0,1.0,5.0,1.0,1.0,15.0,28.0,1.0,15.0,1.0,new,AVSW_Build_up,L3_RU.png,1.0,734.0
1191,5,A,1,visualrecognition,BuildUP,1,5.0,1.0,5.0,1.0,1.0,16.0,23.0,1.0,16.0,1.0,new,AVSW_Build_up,L3_LD_big.png,1.0,644.0
1192,5,A,1,visualrecognition,BuildUP,1,5.0,1.0,5.0,1.0,1.0,17.0,20.0,1.0,17.0,1.0,new,AVSW_Build_up,L2_LD.png,1.0,947.0
1193,5,A,1,visualrecognition,BuildUP,1,5.0,1.0,5.0,1.0,1.0,18.0,9.0,1.0,18.0,1.0,UpDown,AVSW_Build_up,L2_RD_big.png,1.0,574.0
1194,5,A,1,visualrecognition,BuildUP,1,5.0,1.0,5.0,1.0,1.0,19.0,8.0,1.0,19.0,1.0,LeftRight,AVSW_Build_up,L1_LU_big.png,1.0,937.0
1195,5,A,1,visualrecognition,BuildUP,1,5.0,1.0,5.0,1.0,1.0,20.0,25.0,1.0,20.0,1.0,new,AVSW_Build_up,L2_LU.png,1.0,1178.0
1196,5,A,1,visualrecognition,BuildUP,1,5.0,1.0,5.0,1.0,1.0,21.0,26.0,1.0,21.0,1.0,new,AVSW_Build_up,L3_LD.png,1.0,648.0
1197,5,A,1,visualrecognition,BuildUP,1,5.0,1.0,5.0,1.0,1.0,22.0,18.0,1.0,22.0,1.0,new,AVSW_Build_up,L1_RD.png,1.0,755.0
1198,5,A,1,visualrecognition,BuildUP,1,5.0,1.0,5.0,1.0,1.0,23.0,1.0,1.0,23.0,1.0,LeftRight,AVSW_Build_up,L1_RU.png,0.0,774.0
1199,5,A,1,visualrecognition,BuildUP,1,5.0,1.0,5.0,1.0,1.0,24.0,10.0,1.0,24.0,1.0,UpDown,AVSW_Build_up,L2_RU_big.png,1.0,652.0
1200,5,A,1,visualrecognition,BuildUP,1,5.0,1.0,5.0,1.0,1.0,25.0,19.0,1.0,25.0,1.0,new,AVSW_Build_up,L3_RD_big.png,1.0,617.0
1201,5,A,1,visualrecognition,BuildUP,1,5.0,1.0,5.0,1.0,1.0,26.0,22.0,1.0,26.0,1.0,new,AVSW_Build_up,L2_LU_big.png,1.0,929.0
1202,5,A,1,visualrecognition,BuildUP,1,5.0,1.0,5.0,1.0,1.0,27.0,32.0,1.0,27.0,1.0,new,AVSW_Build_up,L4_RD.png,1.0,641.0
1203,5,A,1,visualrecognition,BuildUP,1,5.0,1.0,5.0,1.0,1.0,28.0,15.0,1.0,28.0,1.0,new,AVSW_Build_up,L3_RU_big.png,1.0,613.0
1204,5,A,1,visualrecognition,BuildUP,1,5.0,1.0,5.0,1.0,1.0,29.0,27.0,1.0,29.0,1.0,new,AVSW_Build_up,L3_RD.png,1.0,616.0
1205,5,A,1,visualrecognition,BuildUP,1,5.0,1.0,5.0,1.0,1.0,30.0,13.0,1.0,30.0,1.0,new,AVSW_Build_up,L1_RD_big.png,1.0,630.0
1206,5,A,1,visualrecognition,BuildUP,1,5.0,1.0,5.0,1.0,1.0,31.0,12.0,1.0,31.0,1.0,control,AVSW_Build_up,L4_RU_big.png,1.0,705.0
1207,5,A,1,visualrecognition,BuildUP,1,5.0,1.0,5.0,1.0,1.0,32.0,5.0,1.0,32.0,1.0,control,AVSW_Build_up,L3_LU.png,1.0,572.0
1208,5,A,1,visualrecognition,BuildUP,1,5.0,1.0,5.0,1.0,1.0,33.0,10.0,2.0,33.0,1.0,UpDown,AVSW_Build_up,L2_RU_big.png,1.0,531.0
1209,5,A,1,visualrecognition,BuildUP,1,5.0,1.0,5.0,1.0,1.0,34.0,30.0,2.0,34.0,1.0,new,AVSW_Build_up,L4_LD_big.png,1.0,544.0
1210,5,A,1,visualrecognition,BuildUP,1,5.0,1.0,5.0,1.0,1.0,35.0,21.0,2.0,35.0,1.0,new,AVSW_Build_up,L2_LD_big.png,1.0,802.0
1211,5,A,1,visualrecognition,BuildUP,1,5.0,1.0,5.0,1.0,1.0,36.0,3.0,2.0,36.0,1.0,UpDown,AVSW_Build_up,L2_RD.png,1.0,610.0
1212,5,A,1,visualrecognition,BuildUP,1,5.0,1.0,5.0,1.0,1.0,37.0,7.0,2.0,37.0,1.0,LeftRight,AVSW_Build_up,L1_RU_big.png,1.0,806.0
1213,5,A,1,visualrecognition,BuildUP,1,5.0,1.0,5.0,1.0,1.0,38.0,8.0,2.0,38.0,1.0,LeftRight,AVSW_Build_up,L1_LU_big.png,0.0,783.0
1214,5,A,1,visualrecognition,BuildUP,1,5.0,1.0,5.0,1.0,1.0,39.0,23.0,2.0,39.0,1.0,new,AVSW_Build_up,L3_LD_big.png,1.0,576.0
1215,5,A,1,visualrecognition,BuildUP,1,5.0,1.0,5.0,1.0,1.0,40.0,19.0,2.0,40.0,1.0,new,AVSW_Build_up,L3_RD_big.png,1.0,802.0
1216,5,A,1,visualrecognition,BuildUP,1,5.0,1.0,5.0,1.0,1.0,41.0,20.0,2.0,41.0,1.0,new,AVSW_Build_up,L2_LD.png,1.0,746.0
1217,5,A,1,visualrecognition,BuildUP,1,5.0,1.0,5.0,1.0,1.0,42.0,18.0,2.0,42.0,1.0,new,AVSW_Build_up,L1_RD.png,1.0,731.0
1218,5,A,1,visualrecognition,BuildUP,1,5.0,1.0,5.0,1.0,1.0,43.0,22.0,2.0,43.0,1.0,new,AVSW_Build_up,L2_LU_big.png,1.0,720.0
1219,5,A,1,visualrecognition,BuildUP,1,5.0,1.0,5.0,1.0,1.0,44.0,15.0,2.0,44.0,1.0,new,AVSW_Build_up,L3_RU_big.png,1.0,691.0
1220,5,A,1,visualrecognition,BuildUP,1,5.0,1.0,5.0,1.0,1.0,45.0,16.0,2.0,45.0,1.0,new,AVSW_Build_up,L4_LU_big.png,1.0,563.0
1221,5,A,1,visualrecognition,BuildUP,1,5.0,1.0,5.0,1.0,1.0,46.0,28.0,2.0,46.0,1.0,new,AVSW_Build_up,L3_RU.png,1.0,544.0
1222,5,A,1,visualrecognition,BuildUP,1,5.0,1.0,5.0,1.0,1.0,47.0,25.0,2.0,47.0,1.0,new,AVSW_Build_up,L2_LU.png,1.0,529.0
1223,5,A,1,visualrecognition,BuildUP,1,5.0,1.0,5.0,1.0,1.0,48.0,27.0,2.0,48.0,1.0,new,AVSW_Build_up,L3_RD.png,1.0,527.0
1224,5,A,1,visualrecognition,BuildUP,1,5.0,1.0,5.0,1.0,1.0,49.0,11.0,2.0,49.0,1.0,control,AVSW_Build_up,L3_LU_big.png,1.0,789.0
1225,5,A,1,visualrecognition,BuildUP,1,5.0,1.0,5.0,1.0,1.0,50.0,17.0,2.0,50.0,1.0,new,AVSW_Build_up,L1_LD.png,1.0,672.0
1226,5,A,1,visualrecognition,BuildUP,1,5.0,1.0,5.0,1.0,1.0,51.0,13.0,2.0,51.0,1.0,new,AVSW_Build_up,L1_RD_big.png,1.0,626.0
1227,5,A,1,visualrecognition,BuildUP,1,5.0,1.0,5.0,1.0,1.0,52.0,4.0,2.0,52.0,1.0,UpDown,AVSW_Build_up,L2_RU.png,1.0,772.0
1228,5,A,1,visualrecognition,BuildUP,1,5.0,1.0,5.0,1.0,1.0,53.0,24.0,2.0,53.0,1.0,new,AVSW_Build_up,L4_RD_big.png,1.0,624.0
1229,5,A,1,visualrecognition,BuildUP,1,5.0,1.0,5.0,1.0,1.0,54.0,29.0,2.0,54.0,1.0,new,AVSW_Build_up,L4_LD.png,1.0,604.0
1230,5,A,1,visualrecognition,BuildUP,1,5.0,1.0,5.0,1.0,1.0,55.0,31.0,2.0,55.0,1.0,new,AVSW_Build_up,L4_LU.png,1.0,560.0
1231,5,A,1,visualrecognition,BuildUP,1,5.0,1.0,5.0,1.0,1.0,56.0,14.0,2.0,56.0,1.0,new,AVSW_Build_up,L1_LD_big.png,1.0,553.0
1232,5,A,1,visualrecognition,BuildUP,1,5.0,1.0,5.0,1.0,1.0,57.0,5.0,2.0,57.0,1.0,control,AVSW_Build_up,L3_LU.png,1.0,523.0
1233,5,A,1,visualrecognition,BuildUP,1,5.0,1.0,5.0,1.0,1.0,58.0,12.0,2.0,58.0,1.0,control,AVSW_Build_up,L4_RU_big.png,0.0,485.0
1234,5,A,1,visualrecognition,BuildUP,1,5.0,1.0,5.0,1.0,1.0,59.0,9.0,2.0,59.0,1.0,UpDown,AVSW_Build_up,L2_RD_big.png,1.0,623.0
1235,5,A,1,visualrecognition,BuildUP,1,5.0,1.0,5.0,1.0,1.0,60.0,26.0,2.0,60.0,1.0,new,AVSW_Build_up,L3_LD.png,1.0,683.0
1236,5,A,1,visualrecognition,BuildUP,1,5.0,1.0,5.0,1.0,1.0,61.0,2.0,2.0,61.0,1.0,LeftRight,AVSW_Build_up,L1_LU.png,1.0,718.0
1237,5,A,1,visualrecognition,BuildUP,1,5.0,1.0,5.0,1.0,1.0,62.0,32.0,2.0,62.0,1.0,new,AVSW_Build_up,L4_RD.png,1.0,639.0
1238,5,A,1,visualrecognition,BuildUP,1,5.0,1.0,5.0,1.0,1.0,63.0,1.0,2.0,63.0,1.0,LeftRight,AVSW_Build_up,L1_RU.png,1.0,800.0
1239,5,A,1,visualrecognition,BuildUP,1,5.0,1.0,5.0,1.0,1.0,64.0,6.0,2.0,64.0,1.0,control,AVSW_Build_up,L4_RU.png,1.0,586.0
1240,5,C,1,visualrecognition,AV,2,5.0,1.0,5.0,1.0,1.0,1.0,19.0,1.0,1.0,1.0,new,AVSW_LowCogLoad,L9_RU_big.png,0.0,648.0
1241,5,C,1,visualrecognition,AV,2,5.0,1.0,5.0,1.0,1.0,2.0,28.0,1.0,2.0,1.0,new,AVSW_LowCogLoad,L11_LU.png,1.0,798.0
1242,5,C,1,visualrecognition,AV,2,5.0,1.0,5.0,1.0,1.0,3.0,22.0,1.0,3.0,1.0,new,AVSW_LowCogLoad,L12_RU.png,1.0,713.0
1243,5,C,1,visualrecognition,AV,2,5.0,1.0,5.0,1.0,1.0,4.0,21.0,1.0,4.0,1.0,new,AVSW_LowCogLoad,L11_LD_big.png,1.0,660.0
1244,5,C,1,visualrecognition,AV,2,5.0,1.0,5.0,1.0,1.0,5.0,7.0,1.0,5.0,1.0,LeftRight,AVSW_LowCogLoad,L9_RD_big.png,1.0,730.0
1245,5,C,1,visualrecognition,AV,2,5.0,1.0,5.0,1.0,1.0,6.0,9.0,1.0,6.0,1.0,UpDown,AVSW_LowCogLoad,L10_RU_big.png,1.0,793.0
1246,5,C,1,visualrecognition,AV,2,5.0,1.0,5.0,1.0,1.0,7.0,25.0,1.0,7.0,1.0,new,AVSW_LowCogLoad,L10_LD.png,1.0,707.0
1247,5,C,1,visualrecognition,AV,2,5.0,1.0,5.0,1.0,1.0,8.0,10.0,1.0,8.0,1.0,UpDown,AVSW_LowCogLoad,L10_RD_big.png,1.0,713.0
1248,5,C,1,visualrecognition,AV,2,5.0,1.0,5.0,1.0,1.0,9.0,23.0,1.0,9.0,1.0,new,AVSW_LowCogLoad,L9_LU.png,1.0,742.0
1249,5,C,1,visualrecognition,AV,2,5.0,1.0,5.0,1.0,1.0,10.0,3.0,1.0,10.0,1.0,UpDown,AVSW_LowCogLoad,L10_RU.png,1.0,656.0
1250,5,C,1,visualrecognition,AV,2,5.0,1.0,5.0,1.0,1.0,11.0,1.0,1.0,11.0,1.0,LeftRight,AVSW_LowCogLoad,L9_RD.png,1.0,705.0
1251,5,C,1,visualrecognition,AV,2,5.0,1.0,5.0,1.0,1.0,12.0,29.0,1.0,12.0,1.0,new,AVSW_LowCogLoad,L11_LU_big.png,1.0,770.0
1252,5,C,1,visualrecognition,AV,2,5.0,1.0,5.0,1.0,1.0,13.0,16.0,1.0,13.0,1.0,new,AVSW_LowCogLoad,L10_LD_big.png,1.0,760.0
1253,5,C,1,visualrecognition,AV,2,5.0,1.0,5.0,1.0,1.0,14.0,30.0,1.0,14.0,1.0,new,AVSW_LowCogLoad,L11_RU.png,1.0,888.0
1254,5,C,1,visualrecognition,AV,2,5.0,1.0,5.0,1.0,1.0,15.0,17.0,1.0,15.0,1.0,new,AVSW_LowCogLoad,L12_RU_big.png,1.0,975.0
1255,5,C,1,visualrecognition,AV,2,5.0,1.0,5.0,1.0,1.0,16.0,18.0,1.0,16.0,1.0,new,AVSW_LowCogLoad,L12_LU_big.png,1.0,882.0
1256,5,C,1,visualrecognition,AV,2,5.0,1.0,5.0,1.0,1.0,17.0,2.0,1.0,17.0,1.0,LeftRight,AVSW_LowCogLoad,L9_LD.png,1.0,934.0
1257,5,C,1,visualrecognition,AV,2,5.0,1.0,5.0,1.0,1.0,18.0,15.0,1.0,18.0,1.0,new,AVSW_LowCogLoad,L10_LU_big.png,1.0,958.0
1258,5,C,1,visualrecognition,AV,2,5.0,1.0,5.0,1.0,1.0,19.0,11.0,1.0,19.0,1.0,control,AVSW_LowCogLoad,L11_RD_big.png,1.0,937.0
1259,5,C,1,visualrecognition,AV,2,5.0,1.0,5.0,1.0,1.0,20.0,12.0,1.0,20.0,1.0,control,AVSW_LowCogLoad,L12_LD_big.png,0.0,1064.0
1260,5,C,1,visualrecognition,AV,2,5.0,1.0,5.0,1.0,1.0,21.0,31.0,1.0,21.0,1.0,new,AVSW_LowCogLoad,L12_LU.png,1.0,936.0
1261,5,C,1,visualrecognition,AV,2,5.0,1.0,5.0,1.0,1.0,22.0,4.0,1.0,22.0,1.0,UpDown,AVSW_LowCogLoad,L10_RD.png,1.0,1268.0
1262,5,C,1,visualrecognition,AV,2,5.0,1.0,5.0,1.0,1.0,23.0,5.0,1.0,23.0,1.0,control,AVSW_LowCogLoad,L11_RD.png,1.0,1054.0
1263,5,C,1,visualrecognition,AV,2,5.0,1.0,5.0,1.0,1.0,24.0,24.0,1.0,24.0,1.0,new,AVSW_LowCogLoad,L9_RU.png,1.0,874.0
1264,5,C,1,visualrecognition,AV,2,5.0,1.0,5.0,1.0,1.0,25.0,8.0,1.0,25.0,1.0,LeftRight,AVSW_LowCogLoad,L9_LD_big.png,1.0,1049.0
1265,5,C,1,visualrecognition,AV,2,5.0,1.0,5.0,1.0,1.0,26.0,32.0,1.0,26.0,1.0,new,AVSW_LowCogLoad,L12_RD.png,1.0,1108.0
1266,5,C,1,visualrecognition,AV,2,5.0,1.0,5.0,1.0,1.0,27.0,20.0,1.0,27.0,1.0,new,AVSW_LowCogLoad,L9_LU_big.png,1.0,862.0
1267,5,C,1,visualrecognition,AV,2,5.0,1.0,5.0,1.0,1.0,28.0,6.0,1.0,28.0,1.0,control,AVSW_LowCogLoad,L12_LD.png,0.0,1114.0
1268,5,C,1,visualrecognition,AV,2,5.0,1.0,5.0,1.0,1.0,29.0,13.0,1.0,29.0,1.0,new,AVSW_LowCogLoad,L11_RU_big.png,1.0,1001.0
1269,5,C,1,visualrecognition,AV,2,5.0,1.0,5.0,1.0,1.0,30.0,14.0,1.0,30.0,1.0,new,AVSW_LowCogLoad,L12_RD_big.png,1.0,935.0
1270,5,C,1,visualrecognition,AV,2,5.0,1.0,5.0,1.0,1.0,31.0,26.0,1.0,31.0,1.0,new,AVSW_LowCogLoad,L10_LU.png,1.0,1086.0
1271,5,C,1,visualrecognition,AV,2,5.0,1.0,5.0,1.0,1.0,32.0,27.0,1.0,32.0,1.0,new,AVSW_LowCogLoad,L11_LD.png,1.0,1466.0
1272,5,C,1,visualrecognition,AV,2,5.0,1.0,5.0,1.0,1.0,33.0,31.0,2.0,33.0,1.0,new,AVSW_LowCogLoad,L12_LU.png,1.0,955.0
1273,5,C,1,visualrecognition,AV,2,5.0,1.0,5.0,1.0,1.0,34.0,18.0,2.0,34.0,1.0,new,AVSW_LowCogLoad,L12_LU_big.png,1.0,1208.0
1274,5,C,1,visualrecognition,AV,2,5.0,1.0,5.0,1.0,1.0,35.0,19.0,2.0,35.0,1.0,new,AVSW_LowCogLoad,L9_RU_big.png,1.0,931.0
1275,5,C,1,visualrecognition,AV,2,5.0,1.0,5.0,1.0,1.0,36.0,6.0,2.0,36.0,1.0,control,AVSW_LowCogLoad,L12_LD.png,1.0,1215.0
1276,5,C,1,visualrecognition,AV,2,5.0,1.0,5.0,1.0,1.0,37.0,22.0,2.0,37.0,1.0,new,AVSW_LowCogLoad,L12_RU.png,1.0,939.0
1277,5,C,1,visualrecognition,AV,2,5.0,1.0,5.0,1.0,1.0,38.0,28.0,2.0,38.0,1.0,new,AVSW_LowCogLoad,L11_LU.png,1.0,863.0
1278,5,C,1,visualrecognition,AV,2,5.0,1.0,5.0,1.0,1.0,39.0,12.0,2.0,39.0,1.0,control,AVSW_LowCogLoad,L12_LD_big.png,0.0,2113.0
1279,5,C,1,visualrecognition,AV,2,5.0,1.0,5.0,1.0,1.0,40.0,23.0,2.0,40.0,1.0,new,AVSW_LowCogLoad,L9_LU.png,1.0,844.0
1280,5,C,1,visualrecognition,AV,2,5.0,1.0,5.0,1.0,1.0,41.0,26.0,2.0,41.0,1.0,new,AVSW_LowCogLoad,L10_LU.png,1.0,918.0
1281,5,C,1,visualrecognition,AV,2,5.0,1.0,5.0,1.0,1.0,42.0,8.0,2.0,42.0,1.0,LeftRight,AVSW_LowCogLoad,L9_LD_big.png,1.0,1057.0
1282,5,C,1,visualrecognition,AV,2,5.0,1.0,5.0,1.0,1.0,43.0,1.0,2.0,43.0,1.0,LeftRight,AVSW_LowCogLoad,L9_RD.png,1.0,899.0
1283,5,C,1,visualrecognition,AV,2,5.0,1.0,5.0,1.0,1.0,44.0,9.0,2.0,44.0,1.0,UpDown,AVSW_LowCogLoad,L10_RU_big.png,1.0,938.0
1284,5,C,1,visualrecognition,AV,2,5.0,1.0,5.0,1.0,1.0,45.0,27.0,2.0,45.0,1.0,new,AVSW_LowCogLoad,L11_LD.png,1.0,807.0
1285,5,C,1,visualrecognition,AV,2,5.0,1.0,5.0,1.0,1.0,46.0,32.0,2.0,46.0,1.0,new,AVSW_LowCogLoad,L12_RD.png,1.0,931.0
1286,5,C,1,visualrecognition,AV,2,5.0,1.0,5.0,1.0,1.0,47.0,20.0,2.0,47.0,1.0,new,AVSW_LowCogLoad,L9_LU_big.png,1.0,829.0
1287,5,C,1,visualrecognition,AV,2,5.0,1.0,5.0,1.0,1.0,48.0,29.0,2.0,48.0,1.0,new,AVSW_LowCogLoad,L11_LU_big.png,1.0,869.0
1288,5,C,1,visualrecognition,AV,2,5.0,1.0,5.0,1.0,1.0,49.0,25.0,2.0,49.0,1.0,new,AVSW_LowCogLoad,L10_LD.png,1.0,746.0
1289,5,C,1,visualrecognition,AV,2,5.0,1.0,5.0,1.0,1.0,50.0,15.0,2.0,50.0,1.0,new,AVSW_LowCogLoad,L10_LU_big.png,1.0,831.0
1290,5,C,1,visualrecognition,AV,2,5.0,1.0,5.0,1.0,1.0,51.0,24.0,2.0,51.0,1.0,new,AVSW_LowCogLoad,L9_RU.png,1.0,736.0
1291,5,C,1,visualrecognition,AV,2,5.0,1.0,5.0,1.0,1.0,52.0,14.0,2.0,52.0,1.0,new,AVSW_LowCogLoad,L12_RD_big.png,1.0,1231.0
1292,5,C,1,visualrecognition,AV,2,5.0,1.0,5.0,1.0,1.0,53.0,11.0,2.0,53.0,1.0,control,AVSW_LowCogLoad,L11_RD_big.png,1.0,1627.0
1293,5,C,1,visualrecognition,AV,2,5.0,1.0,5.0,1.0,1.0,54.0,2.0,2.0,54.0,1.0,LeftRight,AVSW_LowCogLoad,L9_LD.png,1.0,1262.0
1294,5,C,1,visualrecognition,AV,2,5.0,1.0,5.0,1.0,1.0,55.0,17.0,2.0,55.0,1.0,new,AVSW_LowCogLoad,L12_RU_big.png,1.0,856.0
1295,5,C,1,visualrecognition,AV,2,5.0,1.0,5.0,1.0,1.0,56.0,5.0,2.0,56.0,1.0,control,AVSW_LowCogLoad,L11_RD.png,1.0,808.0
1296,5,C,1,visualrecognition,AV,2,5.0,1.0,5.0,1.0,1.0,57.0,21.0,2.0,57.0,1.0,new,AVSW_LowCogLoad,L11_LD_big.png,1.0,1559.0
1297,5,C,1,visualrecognition,AV,2,5.0,1.0,5.0,1.0,1.0,58.0,3.0,2.0,58.0,1.0,UpDown,AVSW_LowCogLoad,L10_RU.png,1.0,1033.0
1298,5,C,1,visualrecognition,AV,2,5.0,1.0,5.0,1.0,1.0,59.0,13.0,2.0,59.0,1.0,new,AVSW_LowCogLoad,L11_RU_big.png,1.0,969.0
1299,5,C,1,visualrecognition,AV,2,5.0,1.0,5.0,1.0,1.0,60.0,16.0,2.0,60.0,1.0,new,AVSW_LowCogLoad,L10_LD_big.png,1.0,1111.0
1300,5,C,1,visualrecognition,AV,2,5.0,1.0,5.0,1.0,1.0,61.0,10.0,2.0,61.0,1.0,UpDown,AVSW_LowCogLoad,L10_RD_big.png,1.0,2188.0
1301,5,C,1,visualrecognition,AV,2,5.0,1.0,5.0,1.0,1.0,62.0,30.0,2.0,62.0,1.0,new,AVSW_LowCogLoad,L11_RU.png,1.0,893.0
1302,5,C,1,visualrecognition,AV,2,5.0,1.0,5.0,1.0,1.0,63.0,7.0,2.0,63.0,1.0,LeftRight,AVSW_LowCogLoad,L9_RD_big.png,1.0,851.0
1303,5,C,1,visualrecognition,AV,2,5.0,1.0,5.0,1.0,1.0,64.0,4.0,2.0,64.0,1.0,UpDown,AVSW_LowCogLoad,L10_RD.png,1.0,1545.0
1304,5,B,1,visualrecognition,LowCOG,3,5.0,1.0,5.0,1.0,1.0,1.0,15.0,1.0,1.0,1.0,New,AV,L5_LU_big.png,1.0,685.0
1305,5,B,1,visualrecognition,LowCOG,3,5.0,1.0,5.0,1.0,1.0,2.0,27.0,1.0,2.0,1.0,New,AV,L8_LU.png,1.0,578.0
1306,5,B,1,visualrecognition,LowCOG,3,5.0,1.0,5.0,1.0,1.0,3.0,26.0,1.0,3.0,1.0,New,AV,L8_LD.png,0.0,643.0
1307,5,B,1,visualrecognition,LowCOG,3,5.0,1.0,5.0,1.0,1.0,4.0,11.0,1.0,4.0,1.0,New,AV,L7_RD.png,1.0,684.0
1308,5,B,1,visualrecognition,LowCOG,3,5.0,1.0,5.0,1.0,1.0,5.0,13.0,1.0,5.0,1.0,LeftRight,AV,L5_LD_big.png,1.0,779.0
1309,5,B,1,visualrecognition,LowCOG,3,5.0,1.0,5.0,1.0,1.0,6.0,12.0,1.0,6.0,1.0,New,AV,L7_RD_big.png,1.0,744.0
1310,5,B,1,visualrecognition,LowCOG,3,5.0,1.0,5.0,1.0,1.0,7.0,24.0,1.0,7.0,1.0,New,AV,L7_RU.png,1.0,685.0
1311,5,B,1,visualrecognition,LowCOG,3,5.0,1.0,5.0,1.0,1.0,8.0,8.0,1.0,8.0,1.0,UpDown,AV,L5_RU.png,1.0,676.0
1312,5,B,1,visualrecognition,LowCOG,3,5.0,1.0,5.0,1.0,1.0,9.0,4.0,1.0,9.0,1.0,UpDown,AV,L6_LU.png,1.0,861.0
1313,5,B,1,visualrecognition,LowCOG,3,5.0,1.0,5.0,1.0,1.0,10.0,16.0,1.0,10.0,1.0,New,AV,L5_RU_big.png,1.0,656.0
1314,5,B,1,visualrecognition,LowCOG,3,5.0,1.0,5.0,1.0,1.0,11.0,30.0,1.0,11.0,1.0,New,AV,L8_LD_big.png,1.0,935.0
1315,5,B,1,visualrecognition,LowCOG,3,5.0,1.0,5.0,1.0,1.0,12.0,29.0,1.0,12.0,1.0,New,AV,L8_RU.png,1.0,809.0
1316,5,B,1,visualrecognition,LowCOG,3,5.0,1.0,5.0,1.0,1.0,13.0,10.0,1.0,13.0,1.0,New,AV,L7_LU_big.png,1.0,728.0
1317,5,B,1,visualrecognition,LowCOG,3,5.0,1.0,5.0,1.0,1.0,14.0,9.0,1.0,14.0,1.0,New,AV,L7_LU.png,1.0,696.0
1318,5,B,1,visualrecognition,LowCOG,3,5.0,1.0,5.0,1.0,1.0,15.0,3.0,1.0,15.0,1.0,UpDown,AV,L6_LD.png,1.0,1210.0
1319,5,B,1,visualrecognition,LowCOG,3,5.0,1.0,5.0,1.0,1.0,16.0,14.0,1.0,16.0,1.0,LeftRight,AV,L5_RD_big.png,1.0,905.0
1320,5,B,1,visualrecognition,LowCOG,3,5.0,1.0,5.0,1.0,1.0,17.0,28.0,1.0,17.0,1.0,New,AV,L8_RD_big.png,1.0,1434.0
1321,5,B,1,visualrecognition,LowCOG,3,5.0,1.0,5.0,1.0,1.0,18.0,2.0,1.0,18.0,1.0,LeftRight,AV,L5_LD.png,1.0,681.0
1322,5,B,1,visualrecognition,LowCOG,3,5.0,1.0,5.0,1.0,1.0,19.0,22.0,1.0,19.0,1.0,New,AV,L6_RU_big.png,1.0,1132.0
1323,5,B,1,visualrecognition,LowCOG,3,5.0,1.0,5.0,1.0,1.0,20.0,1.0,1.0,20.0,1.0,LeftRight,AV,L5_RD.png,1.0,714.0
1324,5,B,1,visualrecognition,LowCOG,3,5.0,1.0,5.0,1.0,1.0,21.0,23.0,1.0,21.0,1.0,control,AV,L7_LD_big.png,1.0,910.0
1325,5,B,1,visualrecognition,LowCOG,3,5.0,1.0,5.0,1.0,1.0,22.0,18.0,1.0,22.0,1.0,UpDown,AV,L6_LU_big.png,1.0,1288.0
1326,5,B,1,visualrecognition,LowCOG,3,5.0,1.0,5.0,1.0,1.0,23.0,25.0,1.0,23.0,1.0,New,AV,L7_RU_big.png,1.0,689.0
1327,5,B,1,visualrecognition,LowCOG,3,5.0,1.0,5.0,1.0,1.0,24.0,17.0,1.0,24.0,1.0,UpDown,AV,L6_LD_big.png,1.0,1303.0
1328,5,B,1,visualrecognition,LowCOG,3,5.0,1.0,5.0,1.0,1.0,25.0,31.0,1.0,25.0,1.0,New,AV,L8_LU_big.png,1.0,666.0
1329,5,B,1,visualrecognition,LowCOG,3,5.0,1.0,5.0,1.0,1.0,26.0,21.0,1.0,26.0,1.0,New,AV,L6_RU.png,1.0,1898.0
1330,5,B,1,visualrecognition,LowCOG,3,5.0,1.0,5.0,1.0,1.0,27.0,19.0,1.0,27.0,1.0,New,AV,L6_RD.png,1.0,1408.0
1331,5,B,1,visualrecognition,LowCOG,3,5.0,1.0,5.0,1.0,1.0,28.0,20.0,1.0,28.0,1.0,New,AV,L6_RD_big.png,1.0,1011.0
1332,5,B,1,visualrecognition,LowCOG,3,5.0,1.0,5.0,1.0,1.0,29.0,7.0,1.0,29.0,1.0,UpDown,AV,L5_LU.png,1.0,1588.0
1333,5,B,1,visualrecognition,LowCOG,3,5.0,1.0,5.0,1.0,1.0,30.0,5.0,1.0,30.0,1.0,control,AV,L7_LD.png,1.0,1056.0
1334,5,B,1,visualrecognition,LowCOG,3,5.0,1.0,5.0,1.0,1.0,31.0,6.0,1.0,31.0,1.0,control,AV,L8_RD.png,1.0,907.0
1335,5,B,1,visualrecognition,LowCOG,3,5.0,1.0,5.0,1.0,1.0,32.0,32.0,1.0,32.0,1.0,New,AV,L8_RU_big.png,1.0,667.0
1336,5,B,1,visualrecognition,LowCOG,3,5.0,1.0,5.0,1.0,1.0,33.0,25.0,2.0,33.0,1.0,New,AV,L7_RU_big.png,1.0,972.0
1337,5,B,1,visualrecognition,LowCOG,3,5.0,1.0,5.0,1.0,1.0,34.0,20.0,2.0,34.0,1.0,New,AV,L6_RD_big.png,1.0,979.0
1338,5,B,1,visualrecognition,LowCOG,3,5.0,1.0,5.0,1.0,1.0,35.0,1.0,2.0,35.0,1.0,LeftRight,AV,L5_RD.png,1.0,850.0
1339,5,B,1,visualrecognition,LowCOG,3,5.0,1.0,5.0,1.0,1.0,36.0,7.0,2.0,36.0,1.0,UpDown,AV,L5_LU.png,1.0,683.0
1340,5,B,1,visualrecognition,LowCOG,3,5.0,1.0,5.0,1.0,1.0,37.0,9.0,2.0,37.0,1.0,New,AV,L7_LU.png,1.0,857.0
1341,5,B,1,visualrecognition,LowCOG,3,5.0,1.0,5.0,1.0,1.0,38.0,32.0,2.0,38.0,1.0,New,AV,L8_RU_big.png,1.0,621.0
1342,5,B,1,visualrecognition,LowCOG,3,5.0,1.0,5.0,1.0,1.0,39.0,16.0,2.0,39.0,1.0,New,AV,L5_RU_big.png,1.0,657.0
1343,5,B,1,visualrecognition,LowCOG,3,5.0,1.0,5.0,1.0,1.0,40.0,29.0,2.0,40.0,1.0,New,AV,L8_RU.png,1.0,705.0
1344,5,B,1,visualrecognition,LowCOG,3,5.0,1.0,5.0,1.0,1.0,41.0,17.0,2.0,41.0,1.0,UpDown,AV,L6_LD_big.png,1.0,1346.0
1345,5,B,1,visualrecognition,LowCOG,3,5.0,1.0,5.0,1.0,1.0,42.0,14.0,2.0,42.0,1.0,LeftRight,AV,L5_RD_big.png,1.0,2093.0
1346,5,B,1,visualrecognition,LowCOG,3,5.0,1.0,5.0,1.0,1.0,43.0,19.0,2.0,43.0,1.0,New,AV,L6_RD.png,1.0,861.0
1347,5,B,1,visualrecognition,LowCOG,3,5.0,1.0,5.0,1.0,1.0,44.0,15.0,2.0,44.0,1.0,New,AV,L5_LU_big.png,1.0,697.0
1348,5,B,1,visualrecognition,LowCOG,3,5.0,1.0,5.0,1.0,1.0,45.0,8.0,2.0,45.0,1.0,UpDown,AV,L5_RU.png,1.0,562.0
1349,5,B,1,visualrecognition,LowCOG,3,5.0,1.0,5.0,1.0,1.0,46.0,5.0,2.0,46.0,1.0,control,AV,L7_LD.png,1.0,836.0
1350,5,B,1,visualrecognition,LowCOG,3,5.0,1.0,5.0,1.0,1.0,47.0,22.0,2.0,47.0,1.0,New,AV,L6_RU_big.png,1.0,722.0
1351,5,B,1,visualrecognition,LowCOG,3,5.0,1.0,5.0,1.0,1.0,48.0,4.0,2.0,48.0,1.0,UpDown,AV,L6_LU.png,1.0,849.0
1352,5,B,1,visualrecognition,LowCOG,3,5.0,1.0,5.0,1.0,1.0,49.0,31.0,2.0,49.0,1.0,New,AV,L8_LU_big.png,1.0,747.0
1353,5,B,1,visualrecognition,LowCOG,3,5.0,1.0,5.0,1.0,1.0,50.0,10.0,2.0,50.0,1.0,New,AV,L7_LU_big.png,1.0,700.0
1354,5,B,1,visualrecognition,LowCOG,3,5.0,1.0,5.0,1.0,1.0,51.0,26.0,2.0,51.0,1.0,New,AV,L8_LD.png,1.0,1259.0
1355,5,B,1,visualrecognition,LowCOG,3,5.0,1.0,5.0,1.0,1.0,52.0,13.0,2.0,52.0,1.0,LeftRight,AV,L5_LD_big.png,1.0,782.0
1356,5,B,1,visualrecognition,LowCOG,3,5.0,1.0,5.0,1.0,1.0,53.0,11.0,2.0,53.0,1.0,New,AV,L7_RD.png,1.0,770.0
1357,5,B,1,visualrecognition,LowCOG,3,5.0,1.0,5.0,1.0,1.0,54.0,30.0,2.0,54.0,1.0,New,AV,L8_LD_big.png,1.0,773.0
1358,5,B,1,visualrecognition,LowCOG,3,5.0,1.0,5.0,1.0,1.0,55.0,23.0,2.0,55.0,1.0,control,AV,L7_LD_big.png,1.0,812.0
1359,5,B,1,visualrecognition,LowCOG,3,5.0,1.0,5.0,1.0,1.0,56.0,2.0,2.0,56.0,1.0,LeftRight,AV,L5_LD.png,1.0,832.0
1360,5,B,1,visualrecognition,LowCOG,3,5.0,1.0,5.0,1.0,1.0,57.0,21.0,2.0,57.0,1.0,New,AV,L6_RU.png,1.0,990.0
1361,5,B,1,visualrecognition,LowCOG,3,5.0,1.0,5.0,1.0,1.0,58.0,6.0,2.0,58.0,1.0,control,AV,L8_RD.png,1.0,707.0
1362,5,B,1,visualrecognition,LowCOG,3,5.0,1.0,5.0,1.0,1.0,59.0,12.0,2.0,59.0,1.0,New,AV,L7_RD_big.png,1.0,650.0
1363,5,B,1,visualrecognition,LowCOG,3,5.0,1.0,5.0,1.0,1.0,60.0,18.0,2.0,60.0,1.0,UpDown,AV,L6_LU_big.png,1.0,709.0
1364,5,B,1,visualrecognition,LowCOG,3,5.0,1.0,5.0,1.0,1.0,61.0,27.0,2.0,61.0,1.0,New,AV,L8_LU.png,1.0,718.0
1365,5,B,1,visualrecognition,LowCOG,3,5.0,1.0,5.0,1.0,1.0,62.0,24.0,2.0,62.0,1.0,New,AV,L7_RU.png,1.0,724.0
1366,5,B,1,visualrecognition,LowCOG,3,5.0,1.0,5.0,1.0,1.0,63.0,28.0,2.0,63.0,1.0,New,AV,L8_RD_big.png,1.0,669.0
1367,5,B,1,visualrecognition,LowCOG,3,5.0,1.0,5.0,1.0,1.0,64.0,3.0,2.0,64.0,1.0,UpDown,AV,L6_LD.png,1.0,1344.0
1368,5,A,2,visualrecognition,BuildUP,1,5.0,2.0,5.0,1.0,1.0,1.0,7.0,1.0,1.0,1.0,LeftRight,AVSW_Build_up,L1_RU_big.png,1.0,554.0
1369,5,A,2,visualrecognition,BuildUP,1,5.0,2.0,5.0,1.0,1.0,2.0,16.0,1.0,2.0,1.0,new,AVSW_Build_up,L4_LU_big.png,1.0,625.0
1370,5,A,2,visualrecognition,BuildUP,1,5.0,2.0,5.0,1.0,1.0,3.0,19.0,1.0,3.0,1.0,new,AVSW_Build_up,L3_RD_big.png,1.0,461.0
1371,5,A,2,visualrecognition,BuildUP,1,5.0,2.0,5.0,1.0,1.0,4.0,5.0,1.0,4.0,1.0,control,AVSW_Build_up,L3_LU.png,0.0,601.0
1372,5,A,2,visualrecognition,BuildUP,1,5.0,2.0,5.0,1.0,1.0,5.0,29.0,1.0,5.0,1.0,new,AVSW_Build_up,L4_LD.png,1.0,791.0
1373,5,A,2,visualrecognition,BuildUP,1,5.0,2.0,5.0,1.0,1.0,6.0,11.0,1.0,6.0,1.0,control,AVSW_Build_up,L3_LU_big.png,1.0,613.0
1374,5,A,2,visualrecognition,BuildUP,1,5.0,2.0,5.0,1.0,1.0,7.0,32.0,1.0,7.0,1.0,new,AVSW_Build_up,L4_RD.png,1.0,583.0
1375,5,A,2,visualrecognition,BuildUP,1,5.0,2.0,5.0,1.0,1.0,8.0,14.0,1.0,8.0,1.0,new,AVSW_Build_up,L1_LD_big.png,1.0,636.0
1376,5,A,2,visualrecognition,BuildUP,1,5.0,2.0,5.0,1.0,1.0,9.0,15.0,1.0,9.0,1.0,new,AVSW_Build_up,L3_RU_big.png,1.0,744.0
1377,5,A,2,visualrecognition,BuildUP,1,5.0,2.0,5.0,1.0,1.0,10.0,26.0,1.0,10.0,1.0,new,AVSW_Build_up,L3_LD.png,1.0,530.0
1378,5,A,2,visualrecognition,BuildUP,1,5.0,2.0,5.0,1.0,1.0,11.0,23.0,1.0,11.0,1.0,new,AVSW_Build_up,L3_LD_big.png,1.0,562.0
1379,5,A,2,visualrecognition,BuildUP,1,5.0,2.0,5.0,1.0,1.0,12.0,2.0,1.0,12.0,1.0,LeftRight,AVSW_Build_up,L1_LU.png,1.0,579.0
1380,5,A,2,visualrecognition,BuildUP,1,5.0,2.0,5.0,1.0,1.0,13.0,31.0,1.0,13.0,1.0,new,AVSW_Build_up,L4_LU.png,1.0,697.0
1381,5,A,2,visualrecognition,BuildUP,1,5.0,2.0,5.0,1.0,1.0,14.0,17.0,1.0,14.0,1.0,new,AVSW_Build_up,L1_LD.png,1.0,563.0
1382,5,A,2,visualrecognition,BuildUP,1,5.0,2.0,5.0,1.0,1.0,15.0,4.0,1.0,15.0,1.0,UpDown,AVSW_Build_up,L2_RU.png,1.0,818.0
1383,5,A,2,visualrecognition,BuildUP,1,5.0,2.0,5.0,1.0,1.0,16.0,22.0,1.0,16.0,1.0,new,AVSW_Build_up,L2_LU_big.png,1.0,696.0
1384,5,A,2,visualrecognition,BuildUP,1,5.0,2.0,5.0,1.0,1.0,17.0,30.0,1.0,17.0,1.0,new,AVSW_Build_up,L4_LD_big.png,1.0,564.0
1385,5,A,2,visualrecognition,BuildUP,1,5.0,2.0,5.0,1.0,1.0,18.0,8.0,1.0,18.0,1.0,LeftRight,AVSW_Build_up,L1_LU_big.png,1.0,539.0
1386,5,A,2,visualrecognition,BuildUP,1,5.0,2.0,5.0,1.0,1.0,19.0,24.0,1.0,19.0,1.0,new,AVSW_Build_up,L4_RD_big.png,1.0,555.0
1387,5,A,2,visualrecognition,BuildUP,1,5.0,2.0,5.0,1.0,1.0,20.0,9.0,1.0,20.0,1.0,UpDown,AVSW_Build_up,L2_RD_big.png,1.0,684.0
1388,5,A,2,visualrecognition,BuildUP,1,5.0,2.0,5.0,1.0,1.0,21.0,18.0,1.0,21.0,1.0,new,AVSW_Build_up,L1_RD.png,1.0,807.0
1389,5,A,2,visualrecognition,BuildUP,1,5.0,2.0,5.0,1.0,1.0,22.0,21.0,1.0,22.0,1.0,new,AVSW_Build_up,L2_LD_big.png,1.0,761.0
1390,5,A,2,visualrecognition,BuildUP,1,5.0,2.0,5.0,1.0,1.0,23.0,10.0,1.0,23.0,1.0,UpDown,AVSW_Build_up,L2_RU_big.png,1.0,612.0
1391,5,A,2,visualrecognition,BuildUP,1,5.0,2.0,5.0,1.0,1.0,24.0,20.0,1.0,24.0,1.0,new,AVSW_Build_up,L2_LD.png,1.0,725.0
1392,5,A,2,visualrecognition,BuildUP,1,5.0,2.0,5.0,1.0,1.0,25.0,25.0,1.0,25.0,1.0,new,AVSW_Build_up,L2_LU.png,1.0,559.0
1393,5,A,2,visualrecognition,BuildUP,1,5.0,2.0,5.0,1.0,1.0,26.0,3.0,1.0,26.0,1.0,UpDown,AVSW_Build_up,L2_RD.png,1.0,594.0
1394,5,A,2,visualrecognition,BuildUP,1,5.0,2.0,5.0,1.0,1.0,27.0,12.0,1.0,27.0,1.0,control,AVSW_Build_up,L4_RU_big.png,1.0,871.0
1395,5,A,2,visualrecognition,BuildUP,1,5.0,2.0,5.0,1.0,1.0,28.0,6.0,1.0,28.0,1.0,control,AVSW_Build_up,L4_RU.png,1.0,666.0
1396,5,A,2,visualrecognition,BuildUP,1,5.0,2.0,5.0,1.0,1.0,29.0,13.0,1.0,29.0,1.0,new,AVSW_Build_up,L1_RD_big.png,1.0,666.0
1397,5,A,2,visualrecognition,BuildUP,1,5.0,2.0,5.0,1.0,1.0,30.0,28.0,1.0,30.0,1.0,new,AVSW_Build_up,L3_RU.png,1.0,612.0
1398,5,A,2,visualrecognition,BuildUP,1,5.0,2.0,5.0,1.0,1.0,31.0,27.0,1.0,31.0,1.0,new,AVSW_Build_up,L3_RD.png,1.0,509.0
1399,5,A,2,visualrecognition,BuildUP,1,5.0,2.0,5.0,1.0,1.0,32.0,1.0,1.0,32.0,1.0,LeftRight,AVSW_Build_up,L1_RU.png,1.0,988.0
1400,5,A,2,visualrecognition,BuildUP,1,5.0,2.0,5.0,1.0,1.0,33.0,3.0,2.0,33.0,1.0,UpDown,AVSW_Build_up,L2_RD.png,1.0,549.0
1401,5,A,2,visualrecognition,BuildUP,1,5.0,2.0,5.0,1.0,1.0,34.0,4.0,2.0,34.0,1.0,UpDown,AVSW_Build_up,L2_RU.png,1.0,544.0
1402,5,A,2,visualrecognition,BuildUP,1,5.0,2.0,5.0,1.0,1.0,35.0,28.0,2.0,35.0,1.0,new,AVSW_Build_up,L3_RU.png,1.0,570.0
1403,5,A,2,visualrecognition,BuildUP,1,5.0,2.0,5.0,1.0,1.0,36.0,18.0,2.0,36.0,1.0,new,AVSW_Build_up,L1_RD.png,1.0,395.0
1404,5,A,2,visualrecognition,BuildUP,1,5.0,2.0,5.0,1.0,1.0,37.0,11.0,2.0,37.0,1.0,control,AVSW_Build_up,L3_LU_big.png,1.0,650.0
1405,5,A,2,visualrecognition,BuildUP,1,5.0,2.0,5.0,1.0,1.0,38.0,9.0,2.0,38.0,1.0,UpDown,AVSW_Build_up,L2_RD_big.png,1.0,518.0
1406,5,A,2,visualrecognition,BuildUP,1,5.0,2.0,5.0,1.0,1.0,39.0,20.0,2.0,39.0,1.0,new,AVSW_Build_up,L2_LD.png,1.0,771.0
1407,5,A,2,visualrecognition,BuildUP,1,5.0,2.0,5.0,1.0,1.0,40.0,2.0,2.0,40.0,1.0,LeftRight,AVSW_Build_up,L1_LU.png,1.0,492.0
1408,5,A,2,visualrecognition,BuildUP,1,5.0,2.0,5.0,1.0,1.0,41.0,14.0,2.0,41.0,1.0,new,AVSW_Build_up,L1_LD_big.png,1.0,494.0
1409,5,A,2,visualrecognition,BuildUP,1,5.0,2.0,5.0,1.0,1.0,42.0,30.0,2.0,42.0,1.0,new,AVSW_Build_up,L4_LD_big.png,1.0,553.0
1410,5,A,2,visualrecognition,BuildUP,1,5.0,2.0,5.0,1.0,1.0,43.0,8.0,2.0,43.0,1.0,LeftRight,AVSW_Build_up,L1_LU_big.png,1.0,534.0
1411,5,A,2,visualrecognition,BuildUP,1,5.0,2.0,5.0,1.0,1.0,44.0,25.0,2.0,44.0,1.0,new,AVSW_Build_up,L2_LU.png,1.0,676.0
1412,5,A,2,visualrecognition,BuildUP,1,5.0,2.0,5.0,1.0,1.0,45.0,26.0,2.0,45.0,1.0,new,AVSW_Build_up,L3_LD.png,1.0,580.0
1413,5,A,2,visualrecognition,BuildUP,1,5.0,2.0,5.0,1.0,1.0,46.0,22.0,2.0,46.0,1.0,new,AVSW_Build_up,L2_LU_big.png,1.0,715.0
1414,5,A,2,visualrecognition,BuildUP,1,5.0,2.0,5.0,1.0,1.0,47.0,17.0,2.0,47.0,1.0,new,AVSW_Build_up,L1_LD.png,1.0,544.0
1415,5,A,2,visualrecognition,BuildUP,1,5.0,2.0,5.0,1.0,1.0,48.0,10.0,2.0,48.0,1.0,UpDown,AVSW_Build_up,L2_RU_big.png,1.0,551.0
1416,5,A,2,visualrecognition,BuildUP,1,5.0,2.0,5.0,1.0,1.0,49.0,13.0,2.0,49.0,1.0,new,AVSW_Build_up,L1_RD_big.png,1.0,443.0
1417,5,A,2,visualrecognition,BuildUP,1,5.0,2.0,5.0,1.0,1.0,50.0,16.0,2.0,50.0,1.0,new,AVSW_Build_up,L4_LU_big.png,1.0,569.0
1418,5,A,2,visualrecognition,BuildUP,1,5.0,2.0,5.0,1.0,1.0,51.0,15.0,2.0,51.0,1.0,new,AVSW_Build_up,L3_RU_big.png,1.0,506.0
1419,5,A,2,visualrecognition,BuildUP,1,5.0,2.0,5.0,1.0,1.0,52.0,31.0,2.0,52.0,1.0,new,AVSW_Build_up,L4_LU.png,1.0,633.0
1420,5,A,2,visualrecognition,BuildUP,1,5.0,2.0,5.0,1.0,1.0,53.0,24.0,2.0,53.0,1.0,new,AVSW_Build_up,L4_RD_big.png,1.0,519.0
1421,5,A,2,visualrecognition,BuildUP,1,5.0,2.0,5.0,1.0,1.0,54.0,21.0,2.0,54.0,1.0,new,AVSW_Build_up,L2_LD_big.png,1.0,724.0
1422,5,A,2,visualrecognition,BuildUP,1,5.0,2.0,5.0,1.0,1.0,55.0,29.0,2.0,55.0,1.0,new,AVSW_Build_up,L4_LD.png,1.0,526.0
1423,5,A,2,visualrecognition,BuildUP,1,5.0,2.0,5.0,1.0,1.0,56.0,32.0,2.0,56.0,1.0,new,AVSW_Build_up,L4_RD.png,1.0,444.0
1424,5,A,2,visualrecognition,BuildUP,1,5.0,2.0,5.0,1.0,1.0,57.0,7.0,2.0,57.0,1.0,LeftRight,AVSW_Build_up,L1_RU_big.png,1.0,615.0
1425,5,A,2,visualrecognition,BuildUP,1,5.0,2.0,5.0,1.0,1.0,58.0,19.0,2.0,58.0,1.0,new,AVSW_Build_up,L3_RD_big.png,1.0,458.0
1426,5,A,2,visualrecognition,BuildUP,1,5.0,2.0,5.0,1.0,1.0,59.0,6.0,2.0,59.0,1.0,control,AVSW_Build_up,L4_RU.png,1.0,665.0
1427,5,A,2,visualrecognition,BuildUP,1,5.0,2.0,5.0,1.0,1.0,60.0,23.0,2.0,60.0,1.0,new,AVSW_Build_up,L3_LD_big.png,1.0,610.0
1428,5,A,2,visualrecognition,BuildUP,1,5.0,2.0,5.0,1.0,1.0,61.0,5.0,2.0,61.0,1.0,control,AVSW_Build_up,L3_LU.png,1.0,611.0
1429,5,A,2,visualrecognition,BuildUP,1,5.0,2.0,5.0,1.0,1.0,62.0,1.0,2.0,62.0,1.0,LeftRight,AVSW_Build_up,L1_RU.png,1.0,768.0
1430,5,A,2,visualrecognition,BuildUP,1,5.0,2.0,5.0,1.0,1.0,63.0,27.0,2.0,63.0,1.0,new,AVSW_Build_up,L3_RD.png,1.0,725.0
1431,5,A,2,visualrecognition,BuildUP,1,5.0,2.0,5.0,1.0,1.0,64.0,12.0,2.0,64.0,1.0,control,AVSW_Build_up,L4_RU_big.png,1.0,769.0
1432,5,C,2,visualrecognition,AV,2,5.0,2.0,5.0,1.0,1.0,1.0,18.0,1.0,1.0,1.0,new,AVSW_LowCogLoad,L12_LU_big.png,1.0,604.0
1433,5,C,2,visualrecognition,AV,2,5.0,2.0,5.0,1.0,1.0,2.0,21.0,1.0,2.0,1.0,new,AVSW_LowCogLoad,L11_LD_big.png,1.0,576.0
1434,5,C,2,visualrecognition,AV,2,5.0,2.0,5.0,1.0,1.0,3.0,24.0,1.0,3.0,1.0,new,AVSW_LowCogLoad,L9_RU.png,1.0,585.0
1435,5,C,2,visualrecognition,AV,2,5.0,2.0,5.0,1.0,1.0,4.0,32.0,1.0,4.0,1.0,new,AVSW_LowCogLoad,L12_RD.png,1.0,536.0
1436,5,C,2,visualrecognition,AV,2,5.0,2.0,5.0,1.0,1.0,5.0,17.0,1.0,5.0,1.0,new,AVSW_LowCogLoad,L12_RU_big.png,1.0,550.0
1437,5,C,2,visualrecognition,AV,2,5.0,2.0,5.0,1.0,1.0,6.0,25.0,1.0,6.0,1.0,new,AVSW_LowCogLoad,L10_LD.png,1.0,654.0
1438,5,C,2,visualrecognition,AV,2,5.0,2.0,5.0,1.0,1.0,7.0,19.0,1.0,7.0,1.0,new,AVSW_LowCogLoad,L9_RU_big.png,1.0,516.0
1439,5,C,2,visualrecognition,AV,2,5.0,2.0,5.0,1.0,1.0,8.0,20.0,1.0,8.0,1.0,new,AVSW_LowCogLoad,L9_LU_big.png,1.0,693.0
1440,5,C,2,visualrecognition,AV,2,5.0,2.0,5.0,1.0,1.0,9.0,8.0,1.0,9.0,1.0,LeftRight,AVSW_LowCogLoad,L9_LD_big.png,1.0,830.0
1441,5,C,2,visualrecognition,AV,2,5.0,2.0,5.0,1.0,1.0,10.0,1.0,1.0,10.0,1.0,LeftRight,AVSW_LowCogLoad,L9_RD.png,1.0,641.0
1442,5,C,2,visualrecognition,AV,2,5.0,2.0,5.0,1.0,1.0,11.0,16.0,1.0,11.0,1.0,new,AVSW_LowCogLoad,L10_LD_big.png,1.0,552.0
1443,5,C,2,visualrecognition,AV,2,5.0,2.0,5.0,1.0,1.0,12.0,6.0,1.0,12.0,1.0,control,AVSW_LowCogLoad,L12_LD.png,1.0,749.0
1444,5,C,2,visualrecognition,AV,2,5.0,2.0,5.0,1.0,1.0,13.0,5.0,1.0,13.0,1.0,control,AVSW_LowCogLoad,L11_RD.png,1.0,622.0
1445,5,C,2,visualrecognition,AV,2,5.0,2.0,5.0,1.0,1.0,14.0,29.0,1.0,14.0,1.0,new,AVSW_LowCogLoad,L11_LU_big.png,1.0,545.0
1446,5,C,2,visualrecognition,AV,2,5.0,2.0,5.0,1.0,1.0,15.0,23.0,1.0,15.0,1.0,new,AVSW_LowCogLoad,L9_LU.png,1.0,663.0
1447,5,C,2,visualrecognition,AV,2,5.0,2.0,5.0,1.0,1.0,16.0,14.0,1.0,16.0,1.0,new,AVSW_LowCogLoad,L12_RD_big.png,1.0,607.0
1448,5,C,2,visualrecognition,AV,2,5.0,2.0,5.0,1.0,1.0,17.0,15.0,1.0,17.0,1.0,new,AVSW_LowCogLoad,L10_LU_big.png,1.0,637.0
1449,5,C,2,visualrecognition,AV,2,5.0,2.0,5.0,1.0,1.0,18.0,10.0,1.0,18.0,1.0,UpDown,AVSW_LowCogLoad,L10_RD_big.png,1.0,781.0
1450,5,C,2,visualrecognition,AV,2,5.0,2.0,5.0,1.0,1.0,19.0,11.0,1.0,19.0,1.0,control,AVSW_LowCogLoad,L11_RD_big.png,1.0,647.0
1451,5,C,2,visualrecognition,AV,2,5.0,2.0,5.0,1.0,1.0,20.0,22.0,1.0,20.0,1.0,new,AVSW_LowCogLoad,L12_RU.png,1.0,607.0
1452,5,C,2,visualrecognition,AV,2,5.0,2.0,5.0,1.0,1.0,21.0,26.0,1.0,21.0,1.0,new,AVSW_LowCogLoad,L10_LU.png,1.0,599.0
1453,5,C,2,visualrecognition,AV,2,5.0,2.0,5.0,1.0,1.0,22.0,2.0,1.0,22.0,1.0,LeftRight,AVSW_LowCogLoad,L9_LD.png,1.0,696.0
1454,5,C,2,visualrecognition,AV,2,5.0,2.0,5.0,1.0,1.0,23.0,7.0,1.0,23.0,1.0,LeftRight,AVSW_LowCogLoad,L9_RD_big.png,1.0,651.0
1455,5,C,2,visualrecognition,AV,2,5.0,2.0,5.0,1.0,1.0,24.0,31.0,1.0,24.0,1.0,new,AVSW_LowCogLoad,L12_LU.png,1.0,674.0
1456,5,C,2,visualrecognition,AV,2,5.0,2.0,5.0,1.0,1.0,25.0,27.0,1.0,25.0,1.0,new,AVSW_LowCogLoad,L11_LD.png,1.0,683.0
1457,5,C,2,visualrecognition,AV,2,5.0,2.0,5.0,1.0,1.0,26.0,30.0,1.0,26.0,1.0,new,AVSW_LowCogLoad,L11_RU.png,1.0,533.0
1458,5,C,2,visualrecognition,AV,2,5.0,2.0,5.0,1.0,1.0,27.0,13.0,1.0,27.0,1.0,new,AVSW_LowCogLoad,L11_RU_big.png,1.0,565.0
1459,5,C,2,visualrecognition,AV,2,5.0,2.0,5.0,1.0,1.0,28.0,4.0,1.0,28.0,1.0,UpDown,AVSW_LowCogLoad,L10_RD.png,1.0,933.0
1460,5,C,2,visualrecognition,AV,2,5.0,2.0,5.0,1.0,1.0,29.0,12.0,1.0,29.0,1.0,control,AVSW_LowCogLoad,L12_LD_big.png,1.0,826.0
1461,5,C,2,visualrecognition,AV,2,5.0,2.0,5.0,1.0,1.0,30.0,28.0,1.0,30.0,1.0,new,AVSW_LowCogLoad,L11_LU.png,1.0,567.0
1462,5,C,2,visualrecognition,AV,2,5.0,2.0,5.0,1.0,1.0,31.0,3.0,1.0,31.0,1.0,UpDown,AVSW_LowCogLoad,L10_RU.png,1.0,1017.0
1463,5,C,2,visualrecognition,AV,2,5.0,2.0,5.0,1.0,1.0,32.0,9.0,1.0,32.0,1.0,UpDown,AVSW_LowCogLoad,L10_RU_big.png,1.0,861.0
1464,5,C,2,visualrecognition,AV,2,5.0,2.0,5.0,1.0,1.0,33.0,31.0,2.0,33.0,1.0,new,AVSW_LowCogLoad,L12_LU.png,1.0,637.0
1465,5,C,2,visualrecognition,AV,2,5.0,2.0,5.0,1.0,1.0,34.0,1.0,2.0,34.0,1.0,LeftRight,AVSW_LowCogLoad,L9_RD.png,1.0,769.0
1466,5,C,2,visualrecognition,AV,2,5.0,2.0,5.0,1.0,1.0,35.0,12.0,2.0,35.0,1.0,control,AVSW_LowCogLoad,L12_LD_big.png,1.0,599.0
1467,5,C,2,visualrecognition,AV,2,5.0,2.0,5.0,1.0,1.0,36.0,2.0,2.0,36.0,1.0,LeftRight,AVSW_LowCogLoad,L9_LD.png,1.0,748.0
1468,5,C,2,visualrecognition,AV,2,5.0,2.0,5.0,1.0,1.0,37.0,13.0,2.0,37.0,1.0,new,AVSW_LowCogLoad,L11_RU_big.png,1.0,575.0
1469,5,C,2,visualrecognition,AV,2,5.0,2.0,5.0,1.0,1.0,38.0,15.0,2.0,38.0,1.0,new,AVSW_LowCogLoad,L10_LU_big.png,1.0,1024.0
1470,5,C,2,visualrecognition,AV,2,5.0,2.0,5.0,1.0,1.0,39.0,17.0,2.0,39.0,1.0,new,AVSW_LowCogLoad,L12_RU_big.png,1.0,607.0
1471,5,C,2,visualrecognition,AV,2,5.0,2.0,5.0,1.0,1.0,40.0,25.0,2.0,40.0,1.0,new,AVSW_LowCogLoad,L10_LD.png,1.0,698.0
1472,5,C,2,visualrecognition,AV,2,5.0,2.0,5.0,1.0,1.0,41.0,8.0,2.0,41.0,1.0,LeftRight,AVSW_LowCogLoad,L9_LD_big.png,1.0,683.0
1473,5,C,2,visualrecognition,AV,2,5.0,2.0,5.0,1.0,1.0,42.0,29.0,2.0,42.0,1.0,new,AVSW_LowCogLoad,L11_LU_big.png,1.0,623.0
1474,5,C,2,visualrecognition,AV,2,5.0,2.0,5.0,1.0,1.0,43.0,28.0,2.0,43.0,1.0,new,AVSW_LowCogLoad,L11_LU.png,1.0,584.0
1475,5,C,2,visualrecognition,AV,2,5.0,2.0,5.0,1.0,1.0,44.0,5.0,2.0,44.0,1.0,control,AVSW_LowCogLoad,L11_RD.png,0.0,771.0
1476,5,C,2,visualrecognition,AV,2,5.0,2.0,5.0,1.0,1.0,45.0,7.0,2.0,45.0,1.0,LeftRight,AVSW_LowCogLoad,L9_RD_big.png,1.0,650.0
1477,5,C,2,visualrecognition,AV,2,5.0,2.0,5.0,1.0,1.0,46.0,32.0,2.0,46.0,1.0,new,AVSW_LowCogLoad,L12_RD.png,1.0,583.0
1478,5,C,2,visualrecognition,AV,2,5.0,2.0,5.0,1.0,1.0,47.0,23.0,2.0,47.0,1.0,new,AVSW_LowCogLoad,L9_LU.png,1.0,681.0
1479,5,C,2,visualrecognition,AV,2,5.0,2.0,5.0,1.0,1.0,48.0,18.0,2.0,48.0,1.0,new,AVSW_LowCogLoad,L12_LU_big.png,1.0,514.0
1480,5,C,2,visualrecognition,AV,2,5.0,2.0,5.0,1.0,1.0,49.0,20.0,2.0,49.0,1.0,new,AVSW_LowCogLoad,L9_LU_big.png,1.0,568.0
1481,5,C,2,visualrecognition,AV,2,5.0,2.0,5.0,1.0,1.0,50.0,14.0,2.0,50.0,1.0,new,AVSW_LowCogLoad,L12_RD_big.png,1.0,811.0
1482,5,C,2,visualrecognition,AV,2,5.0,2.0,5.0,1.0,1.0,51.0,21.0,2.0,51.0,1.0,new,AVSW_LowCogLoad,L11_LD_big.png,1.0,811.0
1483,5,C,2,visualrecognition,AV,2,5.0,2.0,5.0,1.0,1.0,52.0,9.0,2.0,52.0,1.0,UpDown,AVSW_LowCogLoad,L10_RU_big.png,1.0,1044.0
1484,5,C,2,visualrecognition,AV,2,5.0,2.0,5.0,1.0,1.0,53.0,4.0,2.0,53.0,1.0,UpDown,AVSW_LowCogLoad,L10_RD.png,1.0,756.0
1485,5,C,2,visualrecognition,AV,2,5.0,2.0,5.0,1.0,1.0,54.0,24.0,2.0,54.0,1.0,new,AVSW_LowCogLoad,L9_RU.png,1.0,571.0
1486,5,C,2,visualrecognition,AV,2,5.0,2.0,5.0,1.0,1.0,55.0,26.0,2.0,55.0,1.0,new,AVSW_LowCogLoad,L10_LU.png,1.0,910.0
1487,5,C,2,visualrecognition,AV,2,5.0,2.0,5.0,1.0,1.0,56.0,27.0,2.0,56.0,1.0,new,AVSW_LowCogLoad,L11_LD.png,1.0,560.0
1488,5,C,2,visualrecognition,AV,2,5.0,2.0,5.0,1.0,1.0,57.0,30.0,2.0,57.0,1.0,new,AVSW_LowCogLoad,L11_RU.png,1.0,491.0
1489,5,C,2,visualrecognition,AV,2,5.0,2.0,5.0,1.0,1.0,58.0,22.0,2.0,58.0,1.0,new,AVSW_LowCogLoad,L12_RU.png,1.0,457.0
1490,5,C,2,visualrecognition,AV,2,5.0,2.0,5.0,1.0,1.0,59.0,6.0,2.0,59.0,1.0,control,AVSW_LowCogLoad,L12_LD.png,1.0,645.0
1491,5,C,2,visualrecognition,AV,2,5.0,2.0,5.0,1.0,1.0,60.0,3.0,2.0,60.0,1.0,UpDown,AVSW_LowCogLoad,L10_RU.png,1.0,858.0
1492,5,C,2,visualrecognition,AV,2,5.0,2.0,5.0,1.0,1.0,61.0,10.0,2.0,61.0,1.0,UpDown,AVSW_LowCogLoad,L10_RD_big.png,1.0,891.0
1493,5,C,2,visualrecognition,AV,2,5.0,2.0,5.0,1.0,1.0,62.0,16.0,2.0,62.0,1.0,new,AVSW_LowCogLoad,L10_LD_big.png,1.0,598.0
1494,5,C,2,visualrecognition,AV,2,5.0,2.0,5.0,1.0,1.0,63.0,19.0,2.0,63.0,1.0,new,AVSW_LowCogLoad,L9_RU_big.png,1.0,576.0
1495,5,C,2,visualrecognition,AV,2,5.0,2.0,5.0,1.0,1.0,64.0,11.0,2.0,64.0,1.0,control,AVSW_LowCogLoad,L11_RD_big.png,1.0,700.0
1496,5,B,2,visualrecognition,LowCOG,3,5.0,2.0,5.0,1.0,1.0,1.0,28.0,1.0,1.0,1.0,New,AV,L8_RD_big.png,1.0,513.0
1497,5,B,2,visualrecognition,LowCOG,3,5.0,2.0,5.0,1.0,1.0,2.0,1.0,1.0,2.0,1.0,LeftRight,AV,L5_RD.png,1.0,641.0
1498,5,B,2,visualrecognition,LowCOG,3,5.0,2.0,5.0,1.0,1.0,3.0,22.0,1.0,3.0,1.0,New,AV,L6_RU_big.png,1.0,567.0
1499,5,B,2,visualrecognition,LowCOG,3,5.0,2.0,5.0,1.0,1.0,4.0,2.0,1.0,4.0,1.0,LeftRight,AV,L5_LD.png,1.0,619.0
1500,5,B,2,visualrecognition,LowCOG,3,5.0,2.0,5.0,1.0,1.0,5.0,25.0,1.0,5.0,1.0,New,AV,L7_RU_big.png,1.0,559.0
1501,5,B,2,visualrecognition,LowCOG,3,5.0,2.0,5.0,1.0,1.0,6.0,8.0,1.0,6.0,1.0,UpDown,AV,L5_RU.png,1.0,602.0
1502,5,B,2,visualrecognition,LowCOG,3,5.0,2.0,5.0,1.0,1.0,7.0,16.0,1.0,7.0,1.0,New,AV,L5_RU_big.png,1.0,468.0
1503,5,B,2,visualrecognition,LowCOG,3,5.0,2.0,5.0,1.0,1.0,8.0,30.0,1.0,8.0,1.0,New,AV,L8_LD_big.png,1.0,577.0
1504,5,B,2,visualrecognition,LowCOG,3,5.0,2.0,5.0,1.0,1.0,9.0,10.0,1.0,9.0,1.0,New,AV,L7_LU_big.png,1.0,491.0
1505,5,B,2,visualrecognition,LowCOG,3,5.0,2.0,5.0,1.0,1.0,10.0,13.0,1.0,10.0,1.0,LeftRight,AV,L5_LD_big.png,1.0,612.0
1506,5,B,2,visualrecognition,LowCOG,3,5.0,2.0,5.0,1.0,1.0,11.0,11.0,1.0,11.0,1.0,New,AV,L7_RD.png,1.0,645.0
1507,5,B,2,visualrecognition,LowCOG,3,5.0,2.0,5.0,1.0,1.0,12.0,29.0,1.0,12.0,1.0,New,AV,L8_RU.png,1.0,537.0
1508,5,B,2,visualrecognition,LowCOG,3,5.0,2.0,5.0,1.0,1.0,13.0,17.0,1.0,13.0,1.0,UpDown,AV,L6_LD_big.png,1.0,941.0
1509,5,B,2,visualrecognition,LowCOG,3,5.0,2.0,5.0,1.0,1.0,14.0,12.0,1.0,14.0,1.0,New,AV,L7_RD_big.png,1.0,678.0
1510,5,B,2,visualrecognition,LowCOG,3,5.0,2.0,5.0,1.0,1.0,15.0,31.0,1.0,15.0,1.0,New,AV,L8_LU_big.png,1.0,520.0
1511,5,B,2,visualrecognition,LowCOG,3,5.0,2.0,5.0,1.0,1.0,16.0,20.0,1.0,16.0,1.0,New,AV,L6_RD_big.png,1.0,1100.0
1512,5,B,2,visualrecognition,LowCOG,3,5.0,2.0,5.0,1.0,1.0,17.0,6.0,1.0,17.0,1.0,control,AV,L8_RD.png,0.0,938.0
1513,5,B,2,visualrecognition,LowCOG,3,5.0,2.0,5.0,1.0,1.0,18.0,4.0,1.0,18.0,1.0,UpDown,AV,L6_LU.png,1.0,780.0
1514,5,B,2,visualrecognition,LowCOG,3,5.0,2.0,5.0,1.0,1.0,19.0,18.0,1.0,19.0,1.0,UpDown,AV,L6_LU_big.png,1.0,629.0
1515,5,B,2,visualrecognition,LowCOG,3,5.0,2.0,5.0,1.0,1.0,20.0,5.0,1.0,20.0,1.0,control,AV,L7_LD.png,1.0,713.0
1516,5,B,2,visualrecognition,LowCOG,3,5.0,2.0,5.0,1.0,1.0,21.0,21.0,1.0,21.0,1.0,New,AV,L6_RU.png,1.0,548.0
1517,5,B,2,visualrecognition,LowCOG,3,5.0,2.0,5.0,1.0,1.0,22.0,32.0,1.0,22.0,1.0,New,AV,L8_RU_big.png,1.0,583.0
1518,5,B,2,visualrecognition,LowCOG,3,5.0,2.0,5.0,1.0,1.0,23.0,23.0,1.0,23.0,1.0,control,AV,L7_LD_big.png,1.0,732.0
1519,5,B,2,visualrecognition,LowCOG,3,5.0,2.0,5.0,1.0,1.0,24.0,15.0,1.0,24.0,1.0,New,AV,L5_LU_big.png,1.0,990.0
1520,5,B,2,visualrecognition,LowCOG,3,5.0,2.0,5.0,1.0,1.0,25.0,9.0,1.0,25.0,1.0,New,AV,L7_LU.png,1.0,456.0
1521,5,B,2,visualrecognition,LowCOG,3,5.0,2.0,5.0,1.0,1.0,26.0,3.0,1.0,26.0,1.0,UpDown,AV,L6_LD.png,1.0,1296.0
1522,5,B,2,visualrecognition,LowCOG,3,5.0,2.0,5.0,1.0,1.0,27.0,26.0,1.0,27.0,1.0,New,AV,L8_LD.png,1.0,967.0
1523,5,B,2,visualrecognition,LowCOG,3,5.0,2.0,5.0,1.0,1.0,28.0,7.0,1.0,28.0,1.0,UpDown,AV,L5_LU.png,1.0,931.0
1524,5,B,2,visualrecognition,LowCOG,3,5.0,2.0,5.0,1.0,1.0,29.0,27.0,1.0,29.0,1.0,New,AV,L8_LU.png,1.0,799.0
1525,5,B,2,visualrecognition,LowCOG,3,5.0,2.0,5.0,1.0,1.0,30.0,14.0,1.0,30.0,1.0,LeftRight,AV,L5_RD_big.png,1.0,770.0
1526,5,B,2,visualrecognition,LowCOG,3,5.0,2.0,5.0,1.0,1.0,31.0,19.0,1.0,31.0,1.0,New,AV,L6_RD.png,1.0,562.0
1527,5,B,2,visualrecognition,LowCOG,3,5.0,2.0,5.0,1.0,1.0,32.0,24.0,1.0,32.0,1.0,New,AV,L7_RU.png,1.0,618.0
1528,5,B,2,visualrecognition,LowCOG,3,5.0,2.0,5.0,1.0,1.0,33.0,18.0,2.0,33.0,1.0,UpDown,AV,L6_LU_big.png,1.0,579.0
1529,5,B,2,visualrecognition,LowCOG,3,5.0,2.0,5.0,1.0,1.0,34.0,25.0,2.0,34.0,1.0,New,AV,L7_RU_big.png,1.0,619.0
1530,5,B,2,visualrecognition,LowCOG,3,5.0,2.0,5.0,1.0,1.0,35.0,32.0,2.0,35.0,1.0,New,AV,L8_RU_big.png,1.0,520.0
1531,5,B,2,visualrecognition,LowCOG,3,5.0,2.0,5.0,1.0,1.0,36.0,10.0,2.0,36.0,1.0,New,AV,L7_LU_big.png,1.0,575.0
1532,5,B,2,visualrecognition,LowCOG,3,5.0,2.0,5.0,1.0,1.0,37.0,31.0,2.0,37.0,1.0,New,AV,L8_LU_big.png,1.0,509.0
1533,5,B,2,visualrecognition,LowCOG,3,5.0,2.0,5.0,1.0,1.0,38.0,22.0,2.0,38.0,1.0,New,AV,L6_RU_big.png,1.0,534.0
1534,5,B,2,visualrecognition,LowCOG,3,5.0,2.0,5.0,1.0,1.0,39.0,11.0,2.0,39.0,1.0,New,AV,L7_RD.png,1.0,440.0
1535,5,B,2,visualrecognition,LowCOG,3,5.0,2.0,5.0,1.0,1.0,40.0,9.0,2.0,40.0,1.0,New,AV,L7_LU.png,1.0,421.0
1536,5,B,2,visualrecognition,LowCOG,3,5.0,2.0,5.0,1.0,1.0,41.0,13.0,2.0,41.0,1.0,LeftRight,AV,L5_LD_big.png,1.0,644.0
1537,5,B,2,visualrecognition,LowCOG,3,5.0,2.0,5.0,1.0,1.0,42.0,7.0,2.0,42.0,1.0,UpDown,AV,L5_LU.png,1.0,559.0
1538,5,B,2,visualrecognition,LowCOG,3,5.0,2.0,5.0,1.0,1.0,43.0,29.0,2.0,43.0,1.0,New,AV,L8_RU.png,1.0,548.0
1539,5,B,2,visualrecognition,LowCOG,3,5.0,2.0,5.0,1.0,1.0,44.0,16.0,2.0,44.0,1.0,New,AV,L5_RU_big.png,0.0,709.0
1540,5,B,2,visualrecognition,LowCOG,3,5.0,2.0,5.0,1.0,1.0,45.0,3.0,2.0,45.0,1.0,UpDown,AV,L6_LD.png,1.0,989.0
1541,5,B,2,visualrecognition,LowCOG,3,5.0,2.0,5.0,1.0,1.0,46.0,20.0,2.0,46.0,1.0,New,AV,L6_RD_big.png,1.0,688.0
1542,5,B,2,visualrecognition,LowCOG,3,5.0,2.0,5.0,1.0,1.0,47.0,17.0,2.0,47.0,1.0,UpDown,AV,L6_LD_big.png,0.0,905.0
1543,5,B,2,visualrecognition,LowCOG,3,5.0,2.0,5.0,1.0,1.0,48.0,15.0,2.0,48.0,1.0,New,AV,L5_LU_big.png,1.0,1071.0
1544,5,B,2,visualrecognition,LowCOG,3,5.0,2.0,5.0,1.0,1.0,49.0,27.0,2.0,49.0,1.0,New,AV,L8_LU.png,1.0,652.0
1545,5,B,2,visualrecognition,LowCOG,3,5.0,2.0,5.0,1.0,1.0,50.0,21.0,2.0,50.0,1.0,New,AV,L6_RU.png,1.0,826.0
1546,5,B,2,visualrecognition,LowCOG,3,5.0,2.0,5.0,1.0,1.0,51.0,4.0,2.0,51.0,1.0,UpDown,AV,L6_LU.png,1.0,776.0
1547,5,B,2,visualrecognition,LowCOG,3,5.0,2.0,5.0,1.0,1.0,52.0,23.0,2.0,52.0,1.0,control,AV,L7_LD_big.png,1.0,688.0
1548,5,B,2,visualrecognition,LowCOG,3,5.0,2.0,5.0,1.0,1.0,53.0,24.0,2.0,53.0,1.0,New,AV,L7_RU.png,1.0,529.0
1549,5,B,2,visualrecognition,LowCOG,3,5.0,2.0,5.0,1.0,1.0,54.0,14.0,2.0,54.0,1.0,LeftRight,AV,L5_RD_big.png,1.0,682.0
1550,5,B,2,visualrecognition,LowCOG,3,5.0,2.0,5.0,1.0,1.0,55.0,6.0,2.0,55.0,1.0,control,AV,L8_RD.png,1.0,901.0
1551,5,B,2,visualrecognition,LowCOG,3,5.0,2.0,5.0,1.0,1.0,56.0,19.0,2.0,56.0,1.0,New,AV,L6_RD.png,1.0,1231.0
1552,5,B,2,visualrecognition,LowCOG,3,5.0,2.0,5.0,1.0,1.0,57.0,28.0,2.0,57.0,1.0,New,AV,L8_RD_big.png,1.0,766.0
1553,5,B,2,visualrecognition,LowCOG,3,5.0,2.0,5.0,1.0,1.0,58.0,2.0,2.0,58.0,1.0,LeftRight,AV,L5_LD.png,1.0,814.0
1554,5,B,2,visualrecognition,LowCOG,3,5.0,2.0,5.0,1.0,1.0,59.0,1.0,2.0,59.0,1.0,LeftRight,AV,L5_RD.png,1.0,1682.0
1555,5,B,2,visualrecognition,LowCOG,3,5.0,2.0,5.0,1.0,1.0,60.0,30.0,2.0,60.0,1.0,New,AV,L8_LD_big.png,1.0,869.0
1556,5,B,2,visualrecognition,LowCOG,3,5.0,2.0,5.0,1.0,1.0,61.0,5.0,2.0,61.0,1.0,control,AV,L7_LD.png,1.0,696.0
1557,5,B,2,visualrecognition,LowCOG,3,5.0,2.0,5.0,1.0,1.0,62.0,12.0,2.0,62.0,1.0,New,AV,L7_RD_big.png,1.0,639.0
1558,5,B,2,visualrecognition,LowCOG,3,5.0,2.0,5.0,1.0,1.0,63.0,8.0,2.0,63.0,1.0,UpDown,AV,L5_RU.png,1.0,636.0
1559,5,B,2,visualrecognition,LowCOG,3,5.0,2.0,5.0,1.0,1.0,64.0,26.0,2.0,64.0,1.0,New,AV,L8_LD.png,1.0,705.0
1627,19,A,1,visualrecognition,AV,1,19.0,1.0,1.0,1.0,1.0,1.0,26.0,1.0,1.0,1.0,new,AVSW_Build_up,L3_LD.png,1.0,856.0
1628,19,A,1,visualrecognition,AV,1,19.0,1.0,1.0,1.0,1.0,2.0,20.0,1.0,2.0,1.0,new,AVSW_Build_up,L2_LD.png,0.0,1087.0
1629,19,A,1,visualrecognition,AV,1,19.0,1.0,1.0,1.0,1.0,3.0,24.0,1.0,3.0,1.0,new,AVSW_Build_up,L4_RD_big.png,0.0,816.0
1630,19,A,1,visualrecognition,AV,1,19.0,1.0,1.0,1.0,1.0,4.0,14.0,1.0,4.0,1.0,new,AVSW_Build_up,L1_LD_big.png,1.0,1691.0
1631,19,A,1,visualrecognition,AV,1,19.0,1.0,1.0,1.0,1.0,5.0,17.0,1.0,5.0,1.0,new,AVSW_Build_up,L1_LD.png,1.0,843.0
1632,19,A,1,visualrecognition,AV,1,19.0,1.0,1.0,1.0,1.0,6.0,12.0,1.0,6.0,1.0,control,AVSW_Build_up,L4_RU_big.png,1.0,935.0
1633,19,A,1,visualrecognition,AV,1,19.0,1.0,1.0,1.0,1.0,7.0,25.0,1.0,7.0,1.0,new,AVSW_Build_up,L2_LU.png,0.0,1063.0
1634,19,A,1,visualrecognition,AV,1,19.0,1.0,1.0,1.0,1.0,8.0,6.0,1.0,8.0,1.0,control,AVSW_Build_up,L4_RU.png,1.0,854.0
1635,19,A,1,visualrecognition,AV,1,19.0,1.0,1.0,1.0,1.0,9.0,5.0,1.0,9.0,1.0,control,AVSW_Build_up,L3_LU.png,1.0,755.0
1636,19,A,1,visualrecognition,AV,1,19.0,1.0,1.0,1.0,1.0,10.0,32.0,1.0,10.0,1.0,new,AVSW_Build_up,L4_RD.png,1.0,1314.0
1637,19,A,1,visualrecognition,AV,1,19.0,1.0,1.0,1.0,1.0,11.0,22.0,1.0,11.0,1.0,new,AVSW_Build_up,L2_LU_big.png,0.0,878.0
1638,19,A,1,visualrecognition,AV,1,19.0,1.0,1.0,1.0,1.0,12.0,29.0,1.0,12.0,1.0,new,AVSW_Build_up,L4_LD.png,1.0,900.0
1639,19,A,1,visualrecognition,AV,1,19.0,1.0,1.0,1.0,1.0,13.0,28.0,1.0,13.0,1.0,new,AVSW_Build_up,L3_RU.png,1.0,880.0
1640,19,A,1,visualrecognition,AV,1,19.0,1.0,1.0,1.0,1.0,14.0,30.0,1.0,14.0,1.0,new,AVSW_Build_up,L4_LD_big.png,1.0,868.0
1641,19,A,1,visualrecognition,AV,1,19.0,1.0,1.0,1.0,1.0,15.0,21.0,1.0,15.0,1.0,new,AVSW_Build_up,L2_LD_big.png,0.0,747.0
1642,19,A,1,visualrecognition,AV,1,19.0,1.0,1.0,1.0,1.0,16.0,15.0,1.0,16.0,1.0,new,AVSW_Build_up,L3_RU_big.png,1.0,666.0
1643,19,A,1,visualrecognition,AV,1,19.0,1.0,1.0,1.0,1.0,17.0,8.0,1.0,17.0,1.0,LeftRight,AVSW_Build_up,L1_LU_big.png,1.0,1060.0
1644,19,A,1,visualrecognition,AV,1,19.0,1.0,1.0,1.0,1.0,18.0,9.0,1.0,18.0,1.0,UpDown,AVSW_Build_up,L2_RD_big.png,1.0,785.0
1645,19,A,1,visualrecognition,AV,1,19.0,1.0,1.0,1.0,1.0,19.0,31.0,1.0,19.0,1.0,new,AVSW_Build_up,L4_LU.png,1.0,883.0
1646,19,A,1,visualrecognition,AV,1,19.0,1.0,1.0,1.0,1.0,20.0,7.0,1.0,20.0,1.0,LeftRight,AVSW_Build_up,L1_RU_big.png,1.0,895.0
1647,19,A,1,visualrecognition,AV,1,19.0,1.0,1.0,1.0,1.0,21.0,11.0,1.0,21.0,1.0,control,AVSW_Build_up,L3_LU_big.png,1.0,785.0
1648,19,A,1,visualrecognition,AV,1,19.0,1.0,1.0,1.0,1.0,22.0,3.0,1.0,22.0,1.0,UpDown,AVSW_Build_up,L2_RD.png,1.0,698.0
1649,19,A,1,visualrecognition,AV,1,19.0,1.0,1.0,1.0,1.0,23.0,2.0,1.0,23.0,1.0,LeftRight,AVSW_Build_up,L1_LU.png,1.0,721.0
1650,19,A,1,visualrecognition,AV,1,19.0,1.0,1.0,1.0,1.0,24.0,23.0,1.0,24.0,1.0,new,AVSW_Build_up,L3_LD_big.png,1.0,652.0
1651,19,A,1,visualrecognition,AV,1,19.0,1.0,1.0,1.0,1.0,25.0,27.0,1.0,25.0,1.0,new,AVSW_Build_up,L3_RD.png,1.0,832.0
1652,19,A,1,visualrecognition,AV,1,19.0,1.0,1.0,1.0,1.0,26.0,18.0,1.0,26.0,1.0,new,AVSW_Build_up,L1_RD.png,1.0,1227.0
1653,19,A,1,visualrecognition,AV,1,19.0,1.0,1.0,1.0,1.0,27.0,19.0,1.0,27.0,1.0,new,AVSW_Build_up,L3_RD_big.png,1.0,692.0
1654,19,A,1,visualrecognition,AV,1,19.0,1.0,1.0,1.0,1.0,28.0,10.0,1.0,28.0,1.0,UpDown,AVSW_Build_up,L2_RU_big.png,1.0,716.0
1655,19,A,1,visualrecognition,AV,1,19.0,1.0,1.0,1.0,1.0,29.0,4.0,1.0,29.0,1.0,UpDown,AVSW_Build_up,L2_RU.png,1.0,785.0
1656,19,A,1,visualrecognition,AV,1,19.0,1.0,1.0,1.0,1.0,30.0,13.0,1.0,30.0,1.0,new,AVSW_Build_up,L1_RD_big.png,1.0,799.0
1657,19,A,1,visualrecognition,AV,1,19.0,1.0,1.0,1.0,1.0,31.0,1.0,1.0,31.0,1.0,LeftRight,AVSW_Build_up,L1_RU.png,1.0,1241.0
1658,19,A,1,visualrecognition,AV,1,19.0,1.0,1.0,1.0,1.0,32.0,16.0,1.0,32.0,1.0,new,AVSW_Build_up,L4_LU_big.png,1.0,866.0
1659,19,A,1,visualrecognition,AV,1,19.0,1.0,1.0,1.0,1.0,33.0,25.0,2.0,33.0,1.0,new,AVSW_Build_up,L2_LU.png,0.0,814.0
1660,19,A,1,visualrecognition,AV,1,19.0,1.0,1.0,1.0,1.0,34.0,8.0,2.0,34.0,1.0,LeftRight,AVSW_Build_up,L1_LU_big.png,1.0,820.0
1661,19,A,1,visualrecognition,AV,1,19.0,1.0,1.0,1.0,1.0,35.0,19.0,2.0,35.0,1.0,new,AVSW_Build_up,L3_RD_big.png,1.0,781.0
1662,19,A,1,visualrecognition,AV,1,19.0,1.0,1.0,1.0,1.0,36.0,3.0,2.0,36.0,1.0,UpDown,AVSW_Build_up,L2_RD.png,1.0,667.0
1663,19,A,1,visualrecognition,AV,1,19.0,1.0,1.0,1.0,1.0,37.0,28.0,2.0,37.0,1.0,new,AVSW_Build_up,L3_RU.png,1.0,650.0
1664,19,A,1,visualrecognition,AV,1,19.0,1.0,1.0,1.0,1.0,38.0,9.0,2.0,38.0,1.0,UpDown,AVSW_Build_up,L2_RD_big.png,1.0,733.0
1665,19,A,1,visualrecognition,AV,1,19.0,1.0,1.0,1.0,1.0,39.0,20.0,2.0,39.0,1.0,new,AVSW_Build_up,L2_LD.png,0.0,906.0
1666,19,A,1,visualrecognition,AV,1,19.0,1.0,1.0,1.0,1.0,40.0,6.0,2.0,40.0,1.0,control,AVSW_Build_up,L4_RU.png,0.0,813.0
1667,19,A,1,visualrecognition,AV,1,19.0,1.0,1.0,1.0,1.0,41.0,14.0,2.0,41.0,1.0,new,AVSW_Build_up,L1_LD_big.png,1.0,961.0
1668,19,A,1,visualrecognition,AV,1,19.0,1.0,1.0,1.0,1.0,42.0,30.0,2.0,42.0,1.0,new,AVSW_Build_up,L4_LD_big.png,1.0,723.0
1669,19,A,1,visualrecognition,AV,1,19.0,1.0,1.0,1.0,1.0,43.0,10.0,2.0,43.0,1.0,UpDown,AVSW_Build_up,L2_RU_big.png,1.0,781.0
1670,19,A,1,visualrecognition,AV,1,19.0,1.0,1.0,1.0,1.0,44.0,23.0,2.0,44.0,1.0,new,AVSW_Build_up,L3_LD_big.png,1.0,816.0
1671,19,A,1,visualrecognition,AV,1,19.0,1.0,1.0,1.0,1.0,45.0,2.0,2.0,45.0,1.0,LeftRight,AVSW_Build_up,L1_LU.png,1.0,786.0
1672,19,A,1,visualrecognition,AV,1,19.0,1.0,1.0,1.0,1.0,46.0,18.0,2.0,46.0,1.0,new,AVSW_Build_up,L1_RD.png,1.0,647.0
1673,19,A,1,visualrecognition,AV,1,19.0,1.0,1.0,1.0,1.0,47.0,13.0,2.0,47.0,1.0,new,AVSW_Build_up,L1_RD_big.png,1.0,580.0
1674,19,A,1,visualrecognition,AV,1,19.0,1.0,1.0,1.0,1.0,48.0,1.0,2.0,48.0,1.0,LeftRight,AVSW_Build_up,L1_RU.png,0.0,948.0
1675,19,A,1,visualrecognition,AV,1,19.0,1.0,1.0,1.0,1.0,49.0,31.0,2.0,49.0,1.0,new,AVSW_Build_up,L4_LU.png,1.0,1283.0
1676,19,A,1,visualrecognition,AV,1,19.0,1.0,1.0,1.0,1.0,50.0,22.0,2.0,50.0,1.0,new,AVSW_Build_up,L2_LU_big.png,0.0,708.0
1677,19,A,1,visualrecognition,AV,1,19.0,1.0,1.0,1.0,1.0,51.0,26.0,2.0,51.0,1.0,new,AVSW_Build_up,L3_LD.png,1.0,660.0
1678,19,A,1,visualrecognition,AV,1,19.0,1.0,1.0,1.0,1.0,52.0,7.0,2.0,52.0,1.0,LeftRight,AVSW_Build_up,L1_RU_big.png,1.0,827.0
1679,19,A,1,visualrecognition,AV,1,19.0,1.0,1.0,1.0,1.0,53.0,5.0,2.0,53.0,1.0,control,AVSW_Build_up,L3_LU.png,1.0,891.0
1680,19,A,1,visualrecognition,AV,1,19.0,1.0,1.0,1.0,1.0,54.0,12.0,2.0,54.0,1.0,control,AVSW_Build_up,L4_RU_big.png,1.0,855.0
1681,19,A,1,visualrecognition,AV,1,19.0,1.0,1.0,1.0,1.0,55.0,21.0,2.0,55.0,1.0,new,AVSW_Build_up,L2_LD_big.png,0.0,691.0
1682,19,A,1,visualrecognition,AV,1,19.0,1.0,1.0,1.0,1.0,56.0,16.0,2.0,56.0,1.0,new,AVSW_Build_up,L4_LU_big.png,1.0,672.0
1683,19,A,1,visualrecognition,AV,1,19.0,1.0,1.0,1.0,1.0,57.0,27.0,2.0,57.0,1.0,new,AVSW_Build_up,L3_RD.png,1.0,567.0
1684,19,A,1,visualrecognition,AV,1,19.0,1.0,1.0,1.0,1.0,58.0,32.0,2.0,58.0,1.0,new,AVSW_Build_up,L4_RD.png,0.0,614.0
1685,19,A,1,visualrecognition,AV,1,19.0,1.0,1.0,1.0,1.0,59.0,15.0,2.0,59.0,1.0,new,AVSW_Build_up,L3_RU_big.png,1.0,673.0
1686,19,A,1,visualrecognition,AV,1,19.0,1.0,1.0,1.0,1.0,60.0,4.0,2.0,60.0,1.0,UpDown,AVSW_Build_up,L2_RU.png,1.0,773.0
1687,19,A,1,visualrecognition,AV,1,19.0,1.0,1.0,1.0,1.0,61.0,11.0,2.0,61.0,1.0,control,AVSW_Build_up,L3_LU_big.png,1.0,779.0
1688,19,A,1,visualrecognition,AV,1,19.0,1.0,1.0,1.0,1.0,62.0,29.0,2.0,62.0,1.0,new,AVSW_Build_up,L4_LD.png,1.0,659.0
1689,19,A,1,visualrecognition,AV,1,19.0,1.0,1.0,1.0,1.0,63.0,24.0,2.0,63.0,1.0,new,AVSW_Build_up,L4_RD_big.png,1.0,707.0
1690,19,A,1,visualrecognition,AV,1,19.0,1.0,1.0,1.0,1.0,64.0,17.0,2.0,64.0,1.0,new,AVSW_Build_up,L1_LD.png,1.0,1149.0
1691,19,C,1,visualrecognition,LowCOG,3,19.0,1.0,1.0,1.0,1.0,1.0,18.0,1.0,1.0,1.0,new,AVSW_LowCogLoad,L12_LU_big.png,1.0,745.0
1692,19,C,1,visualrecognition,LowCOG,3,19.0,1.0,1.0,1.0,1.0,2.0,17.0,1.0,2.0,1.0,new,AVSW_LowCogLoad,L12_RU_big.png,1.0,647.0
1693,19,C,1,visualrecognition,LowCOG,3,19.0,1.0,1.0,1.0,1.0,3.0,1.0,1.0,3.0,1.0,LeftRight,AVSW_LowCogLoad,L9_RD.png,1.0,610.0
1694,19,C,1,visualrecognition,LowCOG,3,19.0,1.0,1.0,1.0,1.0,4.0,22.0,1.0,4.0,1.0,new,AVSW_LowCogLoad,L12_RU.png,1.0,566.0
1695,19,C,1,visualrecognition,LowCOG,3,19.0,1.0,1.0,1.0,1.0,5.0,11.0,1.0,5.0,1.0,control,AVSW_LowCogLoad,L11_RD_big.png,1.0,523.0
1696,19,C,1,visualrecognition,LowCOG,3,19.0,1.0,1.0,1.0,1.0,6.0,14.0,1.0,6.0,1.0,new,AVSW_LowCogLoad,L12_RD_big.png,1.0,772.0
1697,19,C,1,visualrecognition,LowCOG,3,19.0,1.0,1.0,1.0,1.0,7.0,29.0,1.0,7.0,1.0,new,AVSW_LowCogLoad,L11_LU_big.png,1.0,616.0
1698,19,C,1,visualrecognition,LowCOG,3,19.0,1.0,1.0,1.0,1.0,8.0,19.0,1.0,8.0,1.0,new,AVSW_LowCogLoad,L9_RU_big.png,1.0,517.0
1699,19,C,1,visualrecognition,LowCOG,3,19.0,1.0,1.0,1.0,1.0,9.0,23.0,1.0,9.0,1.0,new,AVSW_LowCogLoad,L9_LU.png,1.0,623.0
1700,19,C,1,visualrecognition,LowCOG,3,19.0,1.0,1.0,1.0,1.0,10.0,4.0,1.0,10.0,1.0,UpDown,AVSW_LowCogLoad,L10_RD.png,1.0,741.0
1701,19,C,1,visualrecognition,LowCOG,3,19.0,1.0,1.0,1.0,1.0,11.0,25.0,1.0,11.0,1.0,new,AVSW_LowCogLoad,L10_LD.png,1.0,700.0
1702,19,C,1,visualrecognition,LowCOG,3,19.0,1.0,1.0,1.0,1.0,12.0,31.0,1.0,12.0,1.0,new,AVSW_LowCogLoad,L12_LU.png,1.0,630.0
